row,subject_id,trial_index,rt,key_press,stimulus,stimulus_type,trigger_time,event_code,syntax_cat,ts
1,01,0,38067,NULL,NULL,NULL,NULL,NULL,NULL,NULL
2,01,1,2784080,32,"<p>In this experiment, you will be presented ",NULL,NULL,NULL,NULL,NULL
3,01,2,3158,65,"<p>Whenever you hear sentences that are sensi",NULL,NULL,NULL,NULL,NULL
4,01,3,3384,85,"<p>Whenever you hear sentences that are bizar",NULL,NULL,NULL,NULL,NULL
5,01,4,2816,65,"<p>Whenever you hear a musical phrase that so",NULL,NULL,NULL,NULL,NULL
6,01,5,3328,85,"<p>Whenever you hear a musical phrase that so",NULL,NULL,NULL,NULL,NULL
7,01,6,1616,32,"<p>Now you will have a chance to practice whi",NULL,NULL,NULL,NULL,NULL
8,01,7,28722,32,"<p>First you will get a chance to practice wi",NULL,NULL,NULL,NULL,NULL
9,01,8,NULL,NULL,PracticeSentencesAudio/Sample3c.wav,NULL,0.0106667,NULL,NULL,NULL
10,01,9,NULL,NULL,,NULL,NULL,NULL,NULL,NULL
11,01,10,819,65,"<p>Was this sentence acceptable or unacceptab",Sentence,NULL,NULL,Ungrammatical-PRACTICE,NULL
12,01,11,NULL,NULL,PracticeSentencesAudio/Sample1c.wav,NULL,0,NULL,NULL,NULL
13,01,12,NULL,NULL,,NULL,NULL,NULL,NULL,NULL
14,01,13,2708,65,"<p>Was this sentence acceptable or unacceptab",Sentence,NULL,NULL,Ungrammatical-PRACTICE,NULL
15,01,14,NULL,NULL,PracticeSentencesAudio/Sample3a.wav,NULL,0,NULL,NULL,NULL
16,01,15,NULL,NULL,,NULL,NULL,NULL,NULL,NULL
17,01,16,1230,65,"<p>Was this sentence acceptable or unacceptab",Sentence,NULL,NULL,Grammatical-PRACTICE,NULL
18,01,17,NULL,NULL,PracticeSentencesAudio/Sample2c.wav,NULL,0,NULL,NULL,NULL
19,01,18,NULL,NULL,,NULL,NULL,NULL,NULL,NULL
20,01,19,475,65,"<p>Was this sentence acceptable or unacceptab",Sentence,NULL,NULL,Ungrammatical-PRACTICE,NULL
21,01,20,NULL,NULL,PracticeSentencesAudio/Sample2a.wav,NULL,0,NULL,NULL,NULL
22,01,21,NULL,NULL,,NULL,NULL,NULL,NULL,NULL
23,01,22,390,65,"<p>Was this sentence acceptable or unacceptab",Sentence,NULL,NULL,Grammatical-PRACTICE,NULL
24,01,23,NULL,NULL,PracticeSentencesAudio/Sample1a.wav,NULL,0,NULL,NULL,NULL
25,01,24,NULL,NULL,,NULL,NULL,NULL,NULL,NULL
26,01,25,605,65,"<p>Was this sentence acceptable or unacceptab",Sentence,NULL,NULL,Grammatical-PRACTICE,NULL
27,01,26,5286,32,"<p>Now you will get a chance to practice with",NULL,NULL,NULL,NULL,NULL
28,01,27,NULL,NULL,PracticeMusicAudio/SMusicC1F.wav,NULL,0,NULL,NULL,NULL
29,01,28,NULL,NULL,,NULL,NULL,NULL,NULL,NULL
30,01,29,552,65,"<p>Was this musical phrase acceptable or unac",Music,NULL,NULL,In-Key-PRACTICE,NULL
31,01,30,NULL,NULL,PracticeMusicAudio/SMusicC4D.wav,NULL,0,NULL,NULL,NULL
32,01,31,NULL,NULL,,NULL,NULL,NULL,NULL,NULL
33,01,32,417,65,"<p>Was this musical phrase acceptable or unac",Music,NULL,NULL,Distant-Key-PRACTICE,NULL
34,01,33,NULL,NULL,PracticeMusicAudio/SMusicC4C.wav,NULL,0,NULL,NULL,NULL
35,01,34,NULL,NULL,,NULL,NULL,NULL,NULL,NULL
36,01,35,609,65,"<p>Was this musical phrase acceptable or unac",Music,NULL,NULL,Distant-Key-PRACTICE,NULL
37,01,36,NULL,NULL,PracticeMusicAudio/SMusicC1D.wav,NULL,0,NULL,NULL,NULL
38,01,37,NULL,NULL,,NULL,NULL,NULL,NULL,NULL
39,01,38,289,85,"<p>Was this musical phrase acceptable or unac",Music,NULL,NULL,In-Key-PRACTICE,NULL
40,01,39,NULL,NULL,PracticeMusicAudio/SMusicC1C.wav,NULL,0,NULL,NULL,NULL
41,01,40,NULL,NULL,,NULL,NULL,NULL,NULL,NULL
42,01,41,620,65,"<p>Was this musical phrase acceptable or unac",Music,NULL,NULL,In-Key-PRACTICE,NULL
43,01,42,NULL,NULL,PracticeMusicAudio/SMusicC4F.wav,NULL,0,NULL,NULL,NULL
44,01,43,NULL,NULL,,NULL,NULL,NULL,NULL,NULL
45,01,44,575,85,"<p>Was this musical phrase acceptable or unac",Music,NULL,NULL,Distant-Key-PRACTICE,NULL
46,01,45,53905,32,"<p>In the remaining part of the experiment, t",NULL,NULL,NULL,NULL,NULL
47,01,46,2902,32,"<p>It is very important that you do not blink",NULL,NULL,NULL,NULL,NULL
48,01,47,NULL,NULL,SentenceAudio/22c.wav,NULL,2.14933,NULL,NULL,NULL
49,01,48,NULL,NULL,,NULL,NULL,NULL,NULL,NULL
50,01,49,1766,85,"<p>Was this sentence acceptable or unacceptab",Sentence,NULL,NULL,Ungrammatical,NULL
51,01,50,NULL,NULL,SentenceAudio/1d.wav,NULL,2.08,NULL,NULL,NULL
52,01,51,NULL,NULL,,NULL,NULL,NULL,NULL,NULL
53,01,52,1967,85,"<p>Was this sentence acceptable or unacceptab",Sentence,NULL,NULL,Filler-Gram,NULL
54,01,53,NULL,NULL,SentenceAudio/15c.wav,NULL,2.42133,NULL,NULL,NULL
55,01,54,NULL,NULL,,NULL,NULL,NULL,NULL,NULL
56,01,55,1983,85,"<p>Was this sentence acceptable or unacceptab",Sentence,NULL,NULL,Ungrammatical,NULL
57,01,56,NULL,NULL,SentenceAudio/7d.wav,NULL,1.78933,NULL,NULL,NULL
58,01,57,NULL,NULL,,NULL,NULL,NULL,NULL,NULL
59,01,58,1286,65,"<p>Was this sentence acceptable or unacceptab",Sentence,NULL,NULL,Filler-Gram,NULL
60,01,59,NULL,NULL,SentenceAudio/11c.wav,NULL,2.6,NULL,NULL,NULL
61,01,60,NULL,NULL,,NULL,NULL,NULL,NULL,NULL
62,01,61,1774,85,"<p>Was this sentence acceptable or unacceptab",Sentence,NULL,NULL,Ungrammatical,NULL
63,01,62,NULL,NULL,SentenceAudio/9d.wav,NULL,1.69067,NULL,NULL,NULL
64,01,63,NULL,NULL,,NULL,NULL,NULL,NULL,NULL
65,01,64,1504,65,"<p>Was this sentence acceptable or unacceptab",Sentence,NULL,NULL,Filler-Gram,NULL
66,01,65,NULL,NULL,SentenceAudio/2a.wav,NULL,1.8,NULL,NULL,NULL
67,01,66,NULL,NULL,,NULL,NULL,NULL,NULL,NULL
68,01,67,1674,65,"<p>Was this sentence acceptable or unacceptab",Sentence,NULL,NULL,Grammatical,NULL
69,01,68,NULL,NULL,SentenceAudio/18c.wav,NULL,2.61067,NULL,NULL,NULL
70,01,69,NULL,NULL,,NULL,NULL,NULL,NULL,NULL
71,01,70,1388,65,"<p>Was this sentence acceptable or unacceptab",Sentence,NULL,NULL,Ungrammatical,NULL
72,01,71,NULL,NULL,SentenceAudio/26d.wav,NULL,1.58933,NULL,NULL,NULL
73,01,72,NULL,NULL,,NULL,NULL,NULL,NULL,NULL
74,01,73,2040,65,"<p>Was this sentence acceptable or unacceptab",Sentence,NULL,NULL,Filler-Gram,NULL
75,01,74,NULL,NULL,SentenceAudio/8a.wav,NULL,1.38133,NULL,NULL,NULL
76,01,75,NULL,NULL,,NULL,NULL,NULL,NULL,NULL
77,01,76,1784,65,"<p>Was this sentence acceptable or unacceptab",Sentence,NULL,NULL,Grammatical,NULL
78,01,77,NULL,NULL,SentenceAudio/14c.wav,NULL,2.17067,NULL,NULL,NULL
79,01,78,NULL,NULL,,NULL,NULL,NULL,NULL,NULL
80,01,79,1744,65,"<p>Was this sentence acceptable or unacceptab",Sentence,NULL,NULL,Ungrammatical,NULL
81,01,80,NULL,NULL,SentenceAudio/22f.wav,NULL,1.448,NULL,NULL,NULL
82,01,81,NULL,NULL,,NULL,NULL,NULL,NULL,NULL
83,01,82,1662,65,"<p>Was this sentence acceptable or unacceptab",Sentence,NULL,NULL,Filler-Ungram,NULL
84,01,83,NULL,NULL,SentenceAudio/27d.wav,NULL,1.76,NULL,NULL,NULL
85,01,84,NULL,NULL,,NULL,NULL,NULL,NULL,NULL
86,01,85,399,85,"<p>Was this sentence acceptable or unacceptab",Sentence,NULL,NULL,Filler-Gram,NULL
87,01,86,NULL,NULL,SentenceAudio/16a.wav,NULL,1.57067,NULL,NULL,NULL
88,01,87,NULL,NULL,,NULL,NULL,NULL,NULL,NULL
89,01,88,6588,65,"<p>Was this sentence acceptable or unacceptab",Sentence,NULL,NULL,Grammatical,NULL
90,01,89,NULL,NULL,SentenceAudio/24a.wav,NULL,1.81867,NULL,NULL,NULL
91,01,90,NULL,NULL,,NULL,NULL,NULL,NULL,NULL
92,01,91,725,65,"<p>Was this sentence acceptable or unacceptab",Sentence,NULL,NULL,Grammatical,NULL
93,01,92,NULL,NULL,SentenceAudio/26c.wav,NULL,2.45067,NULL,NULL,NULL
94,01,93,NULL,NULL,,NULL,NULL,NULL,NULL,NULL
95,01,94,1506,85,"<p>Was this sentence acceptable or unacceptab",Sentence,NULL,NULL,Ungrammatical,NULL
96,01,95,NULL,NULL,SentenceAudio/20c.wav,NULL,2.368,NULL,NULL,NULL
97,01,96,NULL,NULL,,NULL,NULL,NULL,NULL,NULL
98,01,97,3585,85,"<p>Was this sentence acceptable or unacceptab",Sentence,NULL,NULL,Ungrammatical,NULL
99,01,98,NULL,NULL,SentenceAudio/16f.wav,NULL,2.17067,NULL,NULL,NULL
100,01,99,NULL,NULL,,NULL,NULL,NULL,NULL,NULL
101,01,100,582,65,"<p>Was this sentence acceptable or unacceptab",Sentence,NULL,NULL,Filler-Ungram,NULL
102,01,101,NULL,NULL,SentenceAudio/30d.wav,NULL,2.05067,NULL,NULL,NULL
103,01,102,NULL,NULL,,NULL,NULL,NULL,NULL,NULL
104,01,103,1426,65,"<p>Was this sentence acceptable or unacceptab",Sentence,NULL,NULL,Filler-Gram,NULL
105,01,104,NULL,NULL,SentenceAudio/28a.wav,NULL,1.66933,NULL,NULL,NULL
106,01,105,NULL,NULL,,NULL,NULL,NULL,NULL,NULL
107,01,106,252,65,"<p>Was this sentence acceptable or unacceptab",Sentence,NULL,NULL,Grammatical,NULL
108,01,107,NULL,NULL,SentenceAudio/21d-3.wav,NULL,1.90133,NULL,NULL,NULL
109,01,108,NULL,NULL,,NULL,NULL,NULL,NULL,NULL
110,01,109,1700,65,"<p>Was this sentence acceptable or unacceptab",Sentence,NULL,NULL,Filler-Gram,NULL
111,01,110,NULL,NULL,SentenceAudio/26f.wav,NULL,2.41867,NULL,NULL,NULL
112,01,111,NULL,NULL,,NULL,NULL,NULL,NULL,NULL
113,01,112,1070,65,"<p>Was this sentence acceptable or unacceptab",Sentence,NULL,NULL,Filler-Ungram,NULL
114,01,113,NULL,NULL,SentenceAudio/28f.wav,NULL,2.37067,NULL,NULL,NULL
115,01,114,NULL,NULL,,NULL,NULL,NULL,NULL,NULL
116,01,115,1136,85,"<p>Was this sentence acceptable or unacceptab",Sentence,NULL,NULL,Filler-Ungram,NULL
117,01,116,NULL,NULL,SentenceAudio/21f-2.wav,NULL,1.90933,NULL,NULL,NULL
118,01,117,NULL,NULL,,NULL,NULL,NULL,NULL,NULL
119,01,118,1902,85,"<p>Was this sentence acceptable or unacceptab",Sentence,NULL,NULL,Filler-Ungram,NULL
120,01,119,NULL,NULL,SentenceAudio/18a.wav,NULL,1.93067,NULL,NULL,NULL
121,01,120,NULL,NULL,,NULL,NULL,NULL,NULL,NULL
122,01,121,273,65,"<p>Was this sentence acceptable or unacceptab",Sentence,NULL,NULL,Grammatical,NULL
123,01,122,NULL,NULL,SentenceAudio/7c.wav,NULL,2.25067,NULL,NULL,NULL
124,01,123,NULL,NULL,,NULL,NULL,NULL,NULL,NULL
125,01,124,2151,65,"<p>Was this sentence acceptable or unacceptab",Sentence,NULL,NULL,Ungrammatical,NULL
126,01,125,NULL,NULL,SentenceAudio/17a.wav,NULL,1.96,NULL,NULL,NULL
127,01,126,NULL,NULL,,NULL,NULL,NULL,NULL,NULL
128,01,127,3026,65,"<p>Was this sentence acceptable or unacceptab",Sentence,NULL,NULL,Grammatical,NULL
129,01,128,NULL,NULL,SentenceAudio/29a.wav,NULL,1.73867,NULL,NULL,NULL
130,01,129,NULL,NULL,,NULL,NULL,NULL,NULL,NULL
131,01,130,5304,65,"<p>Was this sentence acceptable or unacceptab",Sentence,NULL,NULL,Grammatical,NULL
132,01,131,NULL,NULL,SentenceAudio/26a.wav,NULL,1.65067,NULL,NULL,NULL
133,01,132,NULL,NULL,,NULL,NULL,NULL,NULL,NULL
134,01,133,1288,65,"<p>Was this sentence acceptable or unacceptab",Sentence,NULL,NULL,Grammatical,NULL
135,01,134,NULL,NULL,SentenceAudio/28c.wav,NULL,2.52,NULL,NULL,NULL
136,01,135,NULL,NULL,,NULL,NULL,NULL,NULL,NULL
137,01,136,1500,65,"<p>Was this sentence acceptable or unacceptab",Sentence,NULL,NULL,Ungrammatical,NULL
138,01,137,NULL,NULL,SentenceAudio/29f.wav,NULL,2.56,NULL,NULL,NULL
139,01,138,NULL,NULL,,NULL,NULL,NULL,NULL,NULL
140,01,139,1978,85,"<p>Was this sentence acceptable or unacceptab",Sentence,NULL,NULL,Filler-Ungram,NULL
141,01,140,NULL,NULL,SentenceAudio/8d.wav,NULL,1.92,NULL,NULL,NULL
142,01,141,NULL,NULL,,NULL,NULL,NULL,NULL,NULL
143,01,142,1570,65,"<p>Was this sentence acceptable or unacceptab",Sentence,NULL,NULL,Filler-Gram,NULL
144,01,143,NULL,NULL,SentenceAudio/20a.wav,NULL,1.61067,NULL,NULL,NULL
145,01,144,NULL,NULL,,NULL,NULL,NULL,NULL,NULL
146,01,145,640,65,"<p>Was this sentence acceptable or unacceptab",Sentence,NULL,NULL,Grammatical,NULL
147,01,146,17699,32,"<p>That is the end of the first set of sound ",NULL,NULL,NULL,NULL,NULL
148,01,147,NULL,NULL,MusicAudio/014aniC1.wav,NULL,2.01067,NULL,NULL,NULL
149,01,148,NULL,NULL,,NULL,NULL,NULL,NULL,NULL
150,01,149,2484,65,"<p>Was this musical phrase acceptable or unac",Music,NULL,NULL,In-Key,NULL
151,01,150,NULL,NULL,MusicAudio/024aniC4.wav,NULL,3.25067,NULL,NULL,NULL
152,01,151,NULL,NULL,,NULL,NULL,NULL,NULL,NULL
153,01,152,2073,65,"<p>Was this musical phrase acceptable or unac",Music,NULL,NULL,Distant-Key,NULL
154,01,153,NULL,NULL,MusicAudio/05aniC1.wav,NULL,5.01067,NULL,NULL,NULL
155,01,154,NULL,NULL,,NULL,NULL,NULL,NULL,NULL
156,01,155,1570,65,"<p>Was this musical phrase acceptable or unac",Music,NULL,NULL,In-Key,NULL
157,01,156,NULL,NULL,MusicAudio/028aniC4.wav,NULL,3.50133,NULL,NULL,NULL
158,01,157,NULL,NULL,,NULL,NULL,NULL,NULL,NULL
159,01,158,327,85,"<p>Was this musical phrase acceptable or unac",Music,NULL,NULL,Distant-Key,NULL
160,01,159,NULL,NULL,MusicAudio/01aniC4.wav,NULL,4,NULL,NULL,NULL
161,01,160,NULL,NULL,,NULL,NULL,NULL,NULL,NULL
162,01,161,1725,65,"<p>Was this musical phrase acceptable or unac",Music,NULL,NULL,Distant-Key,NULL
163,01,162,NULL,NULL,MusicAudio/08aniC4.wav,NULL,3.01067,NULL,NULL,NULL
164,01,163,NULL,NULL,,NULL,NULL,NULL,NULL,NULL
165,01,164,3185,65,"<p>Was this musical phrase acceptable or unac",Music,NULL,NULL,Distant-Key,NULL
166,01,165,NULL,NULL,MusicAudio/034aniC4.wav,NULL,4,NULL,NULL,NULL
167,01,166,NULL,NULL,,NULL,NULL,NULL,NULL,NULL
168,01,167,634,85,"<p>Was this musical phrase acceptable or unac",Music,NULL,NULL,Distant-Key,NULL
169,01,168,NULL,NULL,MusicAudio/09aniC1.wav,NULL,3.50933,NULL,NULL,NULL
170,01,169,NULL,NULL,,NULL,NULL,NULL,NULL,NULL
171,01,170,4308,65,"<p>Was this musical phrase acceptable or unac",Music,NULL,NULL,In-Key,NULL
172,01,171,NULL,NULL,MusicAudio/08aniC1.wav,NULL,3.01067,NULL,NULL,NULL
173,01,172,NULL,NULL,,NULL,NULL,NULL,NULL,NULL
174,01,173,1747,65,"<p>Was this musical phrase acceptable or unac",Music,NULL,NULL,In-Key,NULL
175,01,174,NULL,NULL,MusicAudio/021aniC1.wav,NULL,2,NULL,NULL,NULL
176,01,175,NULL,NULL,,NULL,NULL,NULL,NULL,NULL
177,01,176,1816,65,"<p>Was this musical phrase acceptable or unac",Music,NULL,NULL,In-Key,NULL
178,01,177,NULL,NULL,MusicAudio/016aniC4.wav,NULL,5,NULL,NULL,NULL
179,01,178,NULL,NULL,,NULL,NULL,NULL,NULL,NULL
180,01,179,1461,65,"<p>Was this musical phrase acceptable or unac",Music,NULL,NULL,Distant-Key,NULL
181,01,180,NULL,NULL,MusicAudio/010aniC1.wav,NULL,1.50933,NULL,NULL,NULL
182,01,181,NULL,NULL,,NULL,NULL,NULL,NULL,NULL
183,01,182,2443,65,"<p>Was this musical phrase acceptable or unac",Music,NULL,NULL,In-Key,NULL
184,01,183,NULL,NULL,MusicAudio/09aniC4.wav,NULL,3.512,NULL,NULL,NULL
185,01,184,NULL,NULL,,NULL,NULL,NULL,NULL,NULL
186,01,185,2257,85,"<p>Was this musical phrase acceptable or unac",Music,NULL,NULL,Distant-Key,NULL
187,01,186,NULL,NULL,MusicAudio/031aniC1.wav,NULL,1.49867,NULL,NULL,NULL
188,01,187,NULL,NULL,,NULL,NULL,NULL,NULL,NULL
189,01,188,2267,65,"<p>Was this musical phrase acceptable or unac",Music,NULL,NULL,In-Key,NULL
190,01,189,NULL,NULL,MusicAudio/020aniC1.wav,NULL,1.512,NULL,NULL,NULL
191,01,190,NULL,NULL,,NULL,NULL,NULL,NULL,NULL
192,01,191,1588,65,"<p>Was this musical phrase acceptable or unac",Music,NULL,NULL,In-Key,NULL
193,01,192,NULL,NULL,MusicAudio/014aniC4.wav,NULL,2,NULL,NULL,NULL
194,01,193,NULL,NULL,,NULL,NULL,NULL,NULL,NULL
195,01,194,1021,65,"<p>Was this musical phrase acceptable or unac",Music,NULL,NULL,Distant-Key,NULL
196,01,195,NULL,NULL,MusicAudio/025aniC4.wav,NULL,3.25067,NULL,NULL,NULL
197,01,196,NULL,NULL,,NULL,NULL,NULL,NULL,NULL
198,01,197,1595,85,"<p>Was this musical phrase acceptable or unac",Music,NULL,NULL,Distant-Key,NULL
199,01,198,NULL,NULL,MusicAudio/021aniC4.wav,NULL,2,NULL,NULL,NULL
200,01,199,NULL,NULL,,NULL,NULL,NULL,NULL,NULL
201,01,200,1998,65,"<p>Was this musical phrase acceptable or unac",Music,NULL,NULL,Distant-Key,NULL
202,01,201,NULL,NULL,MusicAudio/012aniC1.wav,NULL,3.49867,NULL,NULL,NULL
203,01,202,NULL,NULL,,NULL,NULL,NULL,NULL,NULL
204,01,203,1946,65,"<p>Was this musical phrase acceptable or unac",Music,NULL,NULL,In-Key,NULL
205,01,204,NULL,NULL,MusicAudio/023aniC1.wav,NULL,4.008,NULL,NULL,NULL
206,01,205,NULL,NULL,,NULL,NULL,NULL,NULL,NULL
207,01,206,2572,65,"<p>Was this musical phrase acceptable or unac",Music,NULL,NULL,In-Key,NULL
208,01,207,NULL,NULL,MusicAudio/04aniC1.wav,NULL,5.01067,NULL,NULL,NULL
209,01,208,NULL,NULL,,NULL,NULL,NULL,NULL,NULL
210,01,209,3364,65,"<p>Was this musical phrase acceptable or unac",Music,NULL,NULL,In-Key,NULL
211,01,210,NULL,NULL,MusicAudio/033aniC1.wav,NULL,4,NULL,NULL,NULL
212,01,211,NULL,NULL,,NULL,NULL,NULL,NULL,NULL
213,01,212,4164,65,"<p>Was this musical phrase acceptable or unac",Music,NULL,NULL,In-Key,NULL
214,01,213,NULL,NULL,MusicAudio/019aniC1.wav,NULL,3.512,NULL,NULL,NULL
215,01,214,NULL,NULL,,NULL,NULL,NULL,NULL,NULL
216,01,215,3339,65,"<p>Was this musical phrase acceptable or unac",Music,NULL,NULL,In-Key,NULL
217,01,216,NULL,NULL,MusicAudio/035aniC4.wav,NULL,3.50133,NULL,NULL,NULL
218,01,217,NULL,NULL,,NULL,NULL,NULL,NULL,NULL
219,01,218,875,65,"<p>Was this musical phrase acceptable or unac",Music,NULL,NULL,Distant-Key,NULL
220,01,219,NULL,NULL,MusicAudio/02aniC1.wav,NULL,4,NULL,NULL,NULL
221,01,220,NULL,NULL,,NULL,NULL,NULL,NULL,NULL
222,01,221,1449,65,"<p>Was this musical phrase acceptable or unac",Music,NULL,NULL,In-Key,NULL
223,01,222,NULL,NULL,MusicAudio/027aniC1.wav,NULL,5,NULL,NULL,NULL
224,01,223,NULL,NULL,,NULL,NULL,NULL,NULL,NULL
225,01,224,2356,65,"<p>Was this musical phrase acceptable or unac",Music,NULL,NULL,In-Key,NULL
226,01,225,NULL,NULL,MusicAudio/03aniC4.wav,NULL,3,NULL,NULL,NULL
227,01,226,NULL,NULL,,NULL,NULL,NULL,NULL,NULL
228,01,227,3621,65,"<p>Was this musical phrase acceptable or unac",Music,NULL,NULL,Distant-Key,NULL
229,01,228,NULL,NULL,MusicAudio/012aniC4.wav,NULL,3.512,NULL,NULL,NULL
230,01,229,NULL,NULL,,NULL,NULL,NULL,NULL,NULL
231,01,230,950,65,"<p>Was this musical phrase acceptable or unac",Music,NULL,NULL,Distant-Key,NULL
232,01,231,NULL,NULL,MusicAudio/036aniC4.wav,NULL,4,NULL,NULL,NULL
233,01,232,NULL,NULL,,NULL,NULL,NULL,NULL,NULL
234,01,233,913,65,"<p>Was this musical phrase acceptable or unac",Music,NULL,NULL,Distant-Key,NULL
235,01,234,NULL,NULL,MusicAudio/05aniC4.wav,NULL,5,NULL,NULL,NULL
236,01,235,NULL,NULL,,NULL,NULL,NULL,NULL,NULL
237,01,236,1292,85,"<p>Was this musical phrase acceptable or unac",Music,NULL,NULL,Distant-Key,NULL
238,01,237,NULL,NULL,MusicAudio/06aniC1.wav,NULL,2,NULL,NULL,NULL
239,01,238,NULL,NULL,,NULL,NULL,NULL,NULL,NULL
240,01,239,1401,65,"<p>Was this musical phrase acceptable or unac",Music,NULL,NULL,In-Key,NULL
241,01,240,NULL,NULL,MusicAudio/020aniC4.wav,NULL,1.49867,NULL,NULL,NULL
242,01,241,NULL,NULL,,NULL,NULL,NULL,NULL,NULL
243,01,242,5067,65,"<p>Was this musical phrase acceptable or unac",Music,NULL,NULL,Distant-Key,NULL
244,01,243,NULL,NULL,MusicAudio/06aniC4.wav,NULL,2.01067,NULL,NULL,NULL
245,01,244,NULL,NULL,,NULL,NULL,NULL,NULL,NULL
246,01,245,1281,65,"<p>Was this musical phrase acceptable or unac",Music,NULL,NULL,Distant-Key,NULL
247,01,246,NULL,NULL,MusicAudio/011aniC1.wav,NULL,4.49867,NULL,NULL,NULL
248,01,247,NULL,NULL,,NULL,NULL,NULL,NULL,NULL
249,01,248,648,65,"<p>Was this musical phrase acceptable or unac",Music,NULL,NULL,In-Key,NULL
250,01,249,NULL,NULL,MusicAudio/032aniC4.wav,NULL,2.49867,NULL,NULL,NULL
251,01,250,NULL,NULL,,NULL,NULL,NULL,NULL,NULL
252,01,251,4038,65,"<p>Was this musical phrase acceptable or unac",Music,NULL,NULL,Distant-Key,NULL
253,01,252,NULL,NULL,MusicAudio/011aniC4.wav,NULL,4.49867,NULL,NULL,NULL
254,01,253,NULL,NULL,,NULL,NULL,NULL,NULL,NULL
255,01,254,2626,85,"<p>Was this musical phrase acceptable or unac",Music,NULL,NULL,Distant-Key,NULL
256,01,255,14202,32,"<p>That is the end of the second set of sound",NULL,NULL,NULL,NULL,NULL
257,01,256,NULL,NULL,SentenceAudio/14f.wav,NULL,2.65067,NULL,NULL,NULL
258,01,257,NULL,NULL,,NULL,NULL,NULL,NULL,NULL
259,01,258,680,65,"<p>Was this sentence acceptable or unacceptab",Sentence,NULL,NULL,Filler-Ungram,NULL
260,01,259,NULL,NULL,SentenceAudio/17f.wav,NULL,2.49067,NULL,NULL,NULL
261,01,260,NULL,NULL,,NULL,NULL,NULL,NULL,NULL
262,01,261,1495,85,"<p>Was this sentence acceptable or unacceptab",Sentence,NULL,NULL,Filler-Ungram,NULL
263,01,262,NULL,NULL,SentenceAudio/19a.wav,NULL,1.61067,NULL,NULL,NULL
264,01,263,NULL,NULL,,NULL,NULL,NULL,NULL,NULL
265,01,264,978,85,"<p>Was this sentence acceptable or unacceptab",Sentence,NULL,NULL,Grammatical,NULL
266,01,265,NULL,NULL,SentenceAudio/6c.wav,NULL,2.05867,NULL,NULL,NULL
267,01,266,NULL,NULL,,NULL,NULL,NULL,NULL,NULL
268,01,267,1181,85,"<p>Was this sentence acceptable or unacceptab",Sentence,NULL,NULL,Ungrammatical,NULL
269,01,268,NULL,NULL,SentenceAudio/14a.wav,NULL,1.78933,NULL,NULL,NULL
270,01,269,NULL,NULL,,NULL,NULL,NULL,NULL,NULL
271,01,270,1956,65,"<p>Was this sentence acceptable or unacceptab",Sentence,NULL,NULL,Grammatical,NULL
272,01,271,NULL,NULL,SentenceAudio/9a.wav,NULL,1.65867,NULL,NULL,NULL
273,01,272,NULL,NULL,,NULL,NULL,NULL,NULL,NULL
274,01,273,1026,65,"<p>Was this sentence acceptable or unacceptab",Sentence,NULL,NULL,Grammatical,NULL
275,01,274,NULL,NULL,SentenceAudio/13f.wav,NULL,2.32,NULL,NULL,NULL
276,01,275,NULL,NULL,,NULL,NULL,NULL,NULL,NULL
277,01,276,1194,65,"<p>Was this sentence acceptable or unacceptab",Sentence,NULL,NULL,Filler-Ungram,NULL
278,01,277,NULL,NULL,SentenceAudio/25c.wav,NULL,2.18133,NULL,NULL,NULL
279,01,278,NULL,NULL,,NULL,NULL,NULL,NULL,NULL
280,01,279,558,85,"<p>Was this sentence acceptable or unacceptab",Sentence,NULL,NULL,Ungrammatical,NULL
281,01,280,NULL,NULL,SentenceAudio/5c.wav,NULL,2.52,NULL,NULL,NULL
282,01,281,NULL,NULL,,NULL,NULL,NULL,NULL,NULL
283,01,282,2591,65,"<p>Was this sentence acceptable or unacceptab",Sentence,NULL,NULL,Ungrammatical,NULL
284,01,283,NULL,NULL,SentenceAudio/4d.wav,NULL,1.62933,NULL,NULL,NULL
285,01,284,NULL,NULL,,NULL,NULL,NULL,NULL,NULL
286,01,285,2715,65,"<p>Was this sentence acceptable or unacceptab",Sentence,NULL,NULL,Filler-Gram,NULL
287,01,286,NULL,NULL,SentenceAudio/19f.wav,NULL,2.25067,NULL,NULL,NULL
288,01,287,NULL,NULL,,NULL,NULL,NULL,NULL,NULL
289,01,288,1167,65,"<p>Was this sentence acceptable or unacceptab",Sentence,NULL,NULL,Filler-Ungram,NULL
290,01,289,NULL,NULL,SentenceAudio/9c.wav,NULL,1.872,NULL,NULL,NULL
291,01,290,NULL,NULL,,NULL,NULL,NULL,NULL,NULL
292,01,291,1508,65,"<p>Was this sentence acceptable or unacceptab",Sentence,NULL,NULL,Ungrammatical,NULL
293,01,292,NULL,NULL,SentenceAudio/8c.wav,NULL,2.01067,NULL,NULL,NULL
294,01,293,NULL,NULL,,NULL,NULL,NULL,NULL,NULL
295,01,294,2061,65,"<p>Was this sentence acceptable or unacceptab",Sentence,NULL,NULL,Ungrammatical,NULL
296,01,295,NULL,NULL,SentenceAudio/28d.wav,NULL,2.61067,NULL,NULL,NULL
297,01,296,NULL,NULL,,NULL,NULL,NULL,NULL,NULL
298,01,297,1087,65,"<p>Was this sentence acceptable or unacceptab",Sentence,NULL,NULL,Filler-Gram,NULL
299,01,298,NULL,NULL,SentenceAudio/6a.wav,NULL,1.4,NULL,NULL,NULL
300,01,299,NULL,NULL,,NULL,NULL,NULL,NULL,NULL
301,01,300,1499,65,"<p>Was this sentence acceptable or unacceptab",Sentence,NULL,NULL,Grammatical,NULL
302,01,301,NULL,NULL,SentenceAudio/23f.wav,NULL,2.70933,NULL,NULL,NULL
303,01,302,NULL,NULL,,NULL,NULL,NULL,NULL,NULL
304,01,303,615,65,"<p>Was this sentence acceptable or unacceptab",Sentence,NULL,NULL,Filler-Ungram,NULL
305,01,304,NULL,NULL,SentenceAudio/15f.wav,NULL,2.76,NULL,NULL,NULL
306,01,305,NULL,NULL,,NULL,NULL,NULL,NULL,NULL
307,01,306,746,65,"<p>Was this sentence acceptable or unacceptab",Sentence,NULL,NULL,Filler-Ungram,NULL
308,01,307,NULL,NULL,SentenceAudio/25f.wav,NULL,2.4,NULL,NULL,NULL
309,01,308,NULL,NULL,,NULL,NULL,NULL,NULL,NULL
310,01,309,2071,85,"<p>Was this sentence acceptable or unacceptab",Sentence,NULL,NULL,Filler-Ungram,NULL
311,01,310,NULL,NULL,SentenceAudio/29d.wav,NULL,1.78133,NULL,NULL,NULL
312,01,311,NULL,NULL,,NULL,NULL,NULL,NULL,NULL
313,01,312,1798,65,"<p>Was this sentence acceptable or unacceptab",Sentence,NULL,NULL,Filler-Gram,NULL
314,01,313,NULL,NULL,SentenceAudio/30c.wav,NULL,2.28,NULL,NULL,NULL
315,01,314,NULL,NULL,,NULL,NULL,NULL,NULL,NULL
316,01,315,5215,65,"<p>Was this sentence acceptable or unacceptab",Sentence,NULL,NULL,Ungrammatical,NULL
317,01,316,NULL,NULL,SentenceAudio/5a.wav,NULL,1.632,NULL,NULL,NULL
318,01,317,NULL,NULL,,NULL,NULL,NULL,NULL,NULL
319,01,318,942,85,"<p>Was this sentence acceptable or unacceptab",Sentence,NULL,NULL,Grammatical,NULL
320,01,319,NULL,NULL,SentenceAudio/6d.wav,NULL,1.56,NULL,NULL,NULL
321,01,320,NULL,NULL,,NULL,NULL,NULL,NULL,NULL
322,01,321,457,85,"<p>Was this sentence acceptable or unacceptab",Sentence,NULL,NULL,Filler-Gram,NULL
323,01,322,NULL,NULL,SentenceAudio/20f.wav,NULL,2.74133,NULL,NULL,NULL
324,01,323,NULL,NULL,,NULL,NULL,NULL,NULL,NULL
325,01,324,1863,85,"<p>Was this sentence acceptable or unacceptab",Sentence,NULL,NULL,Filler-Ungram,NULL
326,01,325,NULL,NULL,SentenceAudio/24f.wav,NULL,2.69067,NULL,NULL,NULL
327,01,326,NULL,NULL,,NULL,NULL,NULL,NULL,NULL
328,01,327,1384,65,"<p>Was this sentence acceptable or unacceptab",Sentence,NULL,NULL,Filler-Ungram,NULL
329,01,328,NULL,NULL,SentenceAudio/17c.wav,NULL,2.70133,NULL,NULL,NULL
330,01,329,NULL,NULL,,NULL,NULL,NULL,NULL,NULL
331,01,330,659,85,"<p>Was this sentence acceptable or unacceptab",Sentence,NULL,NULL,Ungrammatical,NULL
332,01,331,NULL,NULL,SentenceAudio/22d.wav,NULL,1.84,NULL,NULL,NULL
333,01,332,NULL,NULL,,NULL,NULL,NULL,NULL,NULL
334,01,333,3636,65,"<p>Was this sentence acceptable or unacceptab",Sentence,NULL,NULL,Filler-Gram,NULL
335,01,334,NULL,NULL,SentenceAudio/2d.wav,NULL,2.08,NULL,NULL,NULL
336,01,335,NULL,NULL,,NULL,NULL,NULL,NULL,NULL
337,01,336,1231,65,"<p>Was this sentence acceptable or unacceptab",Sentence,NULL,NULL,Filler-Gram,NULL
338,01,337,NULL,NULL,SentenceAudio/24d.wav,NULL,1.928,NULL,NULL,NULL
339,01,338,NULL,NULL,,NULL,NULL,NULL,NULL,NULL
340,01,339,3463,65,"<p>Was this sentence acceptable or unacceptab",Sentence,NULL,NULL,Filler-Gram,NULL
341,01,340,NULL,NULL,SentenceAudio/3c.wav,NULL,2.17867,NULL,NULL,NULL
342,01,341,NULL,NULL,,NULL,NULL,NULL,NULL,NULL
343,01,342,348,85,"<p>Was this sentence acceptable or unacceptab",Sentence,NULL,NULL,Ungrammatical,NULL
344,01,343,NULL,NULL,SentenceAudio/1c.wav,NULL,1.81867,NULL,NULL,NULL
345,01,344,NULL,NULL,,NULL,NULL,NULL,NULL,NULL
346,01,345,1794,85,"<p>Was this sentence acceptable or unacceptab",Sentence,NULL,NULL,Ungrammatical,NULL
347,01,346,NULL,NULL,SentenceAudio/3d.wav,NULL,1.592,NULL,NULL,NULL
348,01,347,NULL,NULL,,NULL,NULL,NULL,NULL,NULL
349,01,348,3076,85,"<p>Was this sentence acceptable or unacceptab",Sentence,NULL,NULL,Filler-Gram,NULL
350,01,349,NULL,NULL,SentenceAudio/25a.wav,NULL,1.64,NULL,NULL,NULL
351,01,350,NULL,NULL,,NULL,NULL,NULL,NULL,NULL
352,01,351,296,65,"<p>Was this sentence acceptable or unacceptab",Sentence,NULL,NULL,Grammatical,NULL
353,01,352,NULL,NULL,SentenceAudio/29c.wav,NULL,2.168,NULL,NULL,NULL
354,01,353,NULL,NULL,,NULL,NULL,NULL,NULL,NULL
355,01,354,661,85,"<p>Was this sentence acceptable or unacceptab",Sentence,NULL,NULL,Ungrammatical,NULL
356,01,355,18048,32,"<p>That is the end of the third set of sound ",NULL,NULL,NULL,NULL,NULL
357,01,356,NULL,NULL,MusicAudio/015aniC1.wav,NULL,2,NULL,NULL,NULL
358,01,357,NULL,NULL,,NULL,NULL,NULL,NULL,NULL
359,01,358,1183,65,"<p>Was this musical phrase acceptable or unac",Music,NULL,NULL,In-Key,NULL
360,01,359,NULL,NULL,MusicAudio/010aniC4.wav,NULL,1.50133,NULL,NULL,NULL
361,01,360,NULL,NULL,,NULL,NULL,NULL,NULL,NULL
362,01,361,1720,85,"<p>Was this musical phrase acceptable or unac",Music,NULL,NULL,Distant-Key,NULL
363,01,362,NULL,NULL,MusicAudio/032aniC1.wav,NULL,2.50133,NULL,NULL,NULL
364,01,363,NULL,NULL,,NULL,NULL,NULL,NULL,NULL
365,01,364,1693,65,"<p>Was this musical phrase acceptable or unac",Music,NULL,NULL,In-Key,NULL
366,01,365,NULL,NULL,MusicAudio/017aniC1.wav,NULL,2.50133,NULL,NULL,NULL
367,01,366,NULL,NULL,,NULL,NULL,NULL,NULL,NULL
368,01,367,2533,65,"<p>Was this musical phrase acceptable or unac",Music,NULL,NULL,In-Key,NULL
369,01,368,NULL,NULL,MusicAudio/022aniC4.wav,NULL,2,NULL,NULL,NULL
370,01,369,NULL,NULL,,NULL,NULL,NULL,NULL,NULL
371,01,370,881,65,"<p>Was this musical phrase acceptable or unac",Music,NULL,NULL,Distant-Key,NULL
372,01,371,NULL,NULL,MusicAudio/03aniC1.wav,NULL,3,NULL,NULL,NULL
373,01,372,NULL,NULL,,NULL,NULL,NULL,NULL,NULL
374,01,373,1670,65,"<p>Was this musical phrase acceptable or unac",Music,NULL,NULL,In-Key,NULL
375,01,374,NULL,NULL,MusicAudio/029aniC1.wav,NULL,2.49867,NULL,NULL,NULL
376,01,375,NULL,NULL,,NULL,NULL,NULL,NULL,NULL
377,01,376,2868,65,"<p>Was this musical phrase acceptable or unac",Music,NULL,NULL,In-Key,NULL
378,01,377,NULL,NULL,MusicAudio/018aniC1.wav,NULL,3,NULL,NULL,NULL
379,01,378,NULL,NULL,,NULL,NULL,NULL,NULL,NULL
380,01,379,2121,65,"<p>Was this musical phrase acceptable or unac",Music,NULL,NULL,In-Key,NULL
381,01,380,NULL,NULL,MusicAudio/031aniC4.wav,NULL,1.50133,NULL,NULL,NULL
382,01,381,NULL,NULL,,NULL,NULL,NULL,NULL,NULL
383,01,382,3583,85,"<p>Was this musical phrase acceptable or unac",Music,NULL,NULL,Distant-Key,NULL
384,01,383,NULL,NULL,MusicAudio/01aniC1.wav,NULL,4.01067,NULL,NULL,NULL
385,01,384,NULL,NULL,,NULL,NULL,NULL,NULL,NULL
386,01,385,8868,65,"<p>Was this musical phrase acceptable or unac",Music,NULL,NULL,In-Key,NULL
387,01,386,NULL,NULL,MusicAudio/035aniC1.wav,NULL,3.512,NULL,NULL,NULL
388,01,387,NULL,NULL,,NULL,NULL,NULL,NULL,NULL
389,01,388,1187,65,"<p>Was this musical phrase acceptable or unac",Music,NULL,NULL,In-Key,NULL
390,01,389,NULL,NULL,MusicAudio/018aniC4.wav,NULL,3,NULL,NULL,NULL
391,01,390,NULL,NULL,,NULL,NULL,NULL,NULL,NULL
392,01,391,1022,85,"<p>Was this musical phrase acceptable or unac",Music,NULL,NULL,Distant-Key,NULL
393,01,392,NULL,NULL,MusicAudio/013aniC4.wav,NULL,3.01067,NULL,NULL,NULL
394,01,393,NULL,NULL,,NULL,NULL,NULL,NULL,NULL
395,01,394,2691,65,"<p>Was this musical phrase acceptable or unac",Music,NULL,NULL,Distant-Key,NULL
396,01,395,NULL,NULL,MusicAudio/027aniC4.wav,NULL,5,NULL,NULL,NULL
397,01,396,NULL,NULL,,NULL,NULL,NULL,NULL,NULL
398,01,397,1803,65,"<p>Was this musical phrase acceptable or unac",Music,NULL,NULL,Distant-Key,NULL
399,01,398,NULL,NULL,MusicAudio/015aniC4.wav,NULL,2,NULL,NULL,NULL
400,01,399,NULL,NULL,,NULL,NULL,NULL,NULL,NULL
401,01,400,900,65,"<p>Was this musical phrase acceptable or unac",Music,NULL,NULL,Distant-Key,NULL
402,01,401,NULL,NULL,MusicAudio/028aniC1.wav,NULL,3.50133,NULL,NULL,NULL
403,01,402,NULL,NULL,,NULL,NULL,NULL,NULL,NULL
404,01,403,1798,65,"<p>Was this musical phrase acceptable or unac",Music,NULL,NULL,In-Key,NULL
405,01,404,NULL,NULL,MusicAudio/022aniC1.wav,NULL,2,NULL,NULL,NULL
406,01,405,NULL,NULL,,NULL,NULL,NULL,NULL,NULL
407,01,406,2574,65,"<p>Was this musical phrase acceptable or unac",Music,NULL,NULL,In-Key,NULL
408,01,407,NULL,NULL,MusicAudio/024aniC1.wav,NULL,3.25067,NULL,NULL,NULL
409,01,408,NULL,NULL,,NULL,NULL,NULL,NULL,NULL
410,01,409,3369,65,"<p>Was this musical phrase acceptable or unac",Music,NULL,NULL,In-Key,NULL
411,01,410,NULL,NULL,MusicAudio/017aniC4.wav,NULL,2.49867,NULL,NULL,NULL
412,01,411,NULL,NULL,,NULL,NULL,NULL,NULL,NULL
413,01,412,3589,65,"<p>Was this musical phrase acceptable or unac",Music,NULL,NULL,Distant-Key,NULL
414,01,413,NULL,NULL,MusicAudio/036aniC1.wav,NULL,4,NULL,NULL,NULL
415,01,414,NULL,NULL,,NULL,NULL,NULL,NULL,NULL
416,01,415,3613,65,"<p>Was this musical phrase acceptable or unac",Music,NULL,NULL,In-Key,NULL
417,01,416,NULL,NULL,MusicAudio/04aniC4.wav,NULL,5.01067,NULL,NULL,NULL
418,01,417,NULL,NULL,,NULL,NULL,NULL,NULL,NULL
419,01,418,723,65,"<p>Was this musical phrase acceptable or unac",Music,NULL,NULL,Distant-Key,NULL
420,01,419,NULL,NULL,MusicAudio/033aniC4.wav,NULL,4,NULL,NULL,NULL
421,01,420,NULL,NULL,,NULL,NULL,NULL,NULL,NULL
422,01,421,1470,85,"<p>Was this musical phrase acceptable or unac",Music,NULL,NULL,Distant-Key,NULL
423,01,422,NULL,NULL,MusicAudio/07aniC4.wav,NULL,6,NULL,NULL,NULL
424,01,423,NULL,NULL,,NULL,NULL,NULL,NULL,NULL
425,01,424,2490,65,"<p>Was this musical phrase acceptable or unac",Music,NULL,NULL,Distant-Key,NULL
426,01,425,NULL,NULL,MusicAudio/029aniC4.wav,NULL,2.50133,NULL,NULL,NULL
427,01,426,NULL,NULL,,NULL,NULL,NULL,NULL,NULL
428,01,427,3786,65,"<p>Was this musical phrase acceptable or unac",Music,NULL,NULL,Distant-Key,NULL
429,01,428,NULL,NULL,MusicAudio/07aniC1.wav,NULL,6,NULL,NULL,NULL
430,01,429,NULL,NULL,,NULL,NULL,NULL,NULL,NULL
431,01,430,5142,65,"<p>Was this musical phrase acceptable or unac",Music,NULL,NULL,In-Key,NULL
432,01,431,NULL,NULL,MusicAudio/030aniC4.wav,NULL,3.01067,NULL,NULL,NULL
433,01,432,NULL,NULL,,NULL,NULL,NULL,NULL,NULL
434,01,433,601,65,"<p>Was this musical phrase acceptable or unac",Music,NULL,NULL,Distant-Key,NULL
435,01,434,NULL,NULL,MusicAudio/023aniC4.wav,NULL,4,NULL,NULL,NULL
436,01,435,NULL,NULL,,NULL,NULL,NULL,NULL,NULL
437,01,436,1331,65,"<p>Was this musical phrase acceptable or unac",Music,NULL,NULL,Distant-Key,NULL
438,01,437,NULL,NULL,MusicAudio/034aniC1.wav,NULL,4,NULL,NULL,NULL
439,01,438,NULL,NULL,,NULL,NULL,NULL,NULL,NULL
440,01,439,3635,85,"<p>Was this musical phrase acceptable or unac",Music,NULL,NULL,In-Key,NULL
441,01,440,NULL,NULL,MusicAudio/016aniC1.wav,NULL,5,NULL,NULL,NULL
442,01,441,NULL,NULL,,NULL,NULL,NULL,NULL,NULL
443,01,442,4053,65,"<p>Was this musical phrase acceptable or unac",Music,NULL,NULL,In-Key,NULL
444,01,443,NULL,NULL,MusicAudio/026aniC4.wav,NULL,2.01067,NULL,NULL,NULL
445,01,444,NULL,NULL,,NULL,NULL,NULL,NULL,NULL
446,01,445,2277,65,"<p>Was this musical phrase acceptable or unac",Music,NULL,NULL,Distant-Key,NULL
447,01,446,NULL,NULL,MusicAudio/030aniC1.wav,NULL,3,NULL,NULL,NULL
448,01,447,NULL,NULL,,NULL,NULL,NULL,NULL,NULL
449,01,448,3776,65,"<p>Was this musical phrase acceptable or unac",Music,NULL,NULL,In-Key,NULL
450,01,449,NULL,NULL,MusicAudio/02aniC4.wav,NULL,4,NULL,NULL,NULL
451,01,450,NULL,NULL,,NULL,NULL,NULL,NULL,NULL
452,01,451,508,85,"<p>Was this musical phrase acceptable or unac",Music,NULL,NULL,Distant-Key,NULL
453,01,452,NULL,NULL,MusicAudio/026aniC1.wav,NULL,2,NULL,NULL,NULL
454,01,453,NULL,NULL,,NULL,NULL,NULL,NULL,NULL
455,01,454,441,65,"<p>Was this musical phrase acceptable or unac",Music,NULL,NULL,In-Key,NULL
456,01,455,NULL,NULL,MusicAudio/019aniC4.wav,NULL,3.50933,NULL,NULL,NULL
457,01,456,NULL,NULL,,NULL,NULL,NULL,NULL,NULL
458,01,457,902,85,"<p>Was this musical phrase acceptable or unac",Music,NULL,NULL,Distant-Key,NULL
459,01,458,NULL,NULL,MusicAudio/013aniC1.wav,NULL,3.01067,NULL,NULL,NULL
460,01,459,NULL,NULL,,NULL,NULL,NULL,NULL,NULL
461,01,460,1926,65,"<p>Was this musical phrase acceptable or unac",Music,NULL,NULL,In-Key,NULL
462,01,461,NULL,NULL,MusicAudio/025aniC1.wav,NULL,3.26133,NULL,NULL,NULL
463,01,462,NULL,NULL,,NULL,NULL,NULL,NULL,NULL
464,01,463,1580,65,"<p>Was this musical phrase acceptable or unac",Music,NULL,NULL,In-Key,NULL
465,01,464,13919,32,"<p>That is the end of the fourth set of sound",NULL,NULL,NULL,NULL,NULL
466,01,465,NULL,NULL,SentenceAudio/23a.wav,NULL,1.52,NULL,NULL,NULL
467,01,466,NULL,NULL,,NULL,NULL,NULL,NULL,NULL
468,01,467,491,65,"<p>Was this sentence acceptable or unacceptab",Sentence,NULL,NULL,Grammatical,NULL
469,01,468,NULL,NULL,SentenceAudio/13c.wav,NULL,1.85867,NULL,NULL,NULL
470,01,469,NULL,NULL,,NULL,NULL,NULL,NULL,NULL
471,01,470,872,85,"<p>Was this sentence acceptable or unacceptab",Sentence,NULL,NULL,Ungrammatical,NULL
472,01,471,NULL,NULL,SentenceAudio/12f.wav,NULL,2.45867,NULL,NULL,NULL
473,01,472,NULL,NULL,,NULL,NULL,NULL,NULL,NULL
474,01,473,1476,65,"<p>Was this sentence acceptable or unacceptab",Sentence,NULL,NULL,Filler-Ungram,NULL
475,01,474,NULL,NULL,SentenceAudio/12c.wav,NULL,1.768,NULL,NULL,NULL
476,01,475,NULL,NULL,,NULL,NULL,NULL,NULL,NULL
477,01,476,1731,65,"<p>Was this sentence acceptable or unacceptab",Sentence,NULL,NULL,Ungrammatical,NULL
478,01,477,NULL,NULL,SentenceAudio/25d.wav,NULL,1.86133,NULL,NULL,NULL
479,01,478,NULL,NULL,,NULL,NULL,NULL,NULL,NULL
480,01,479,1646,65,"<p>Was this sentence acceptable or unacceptab",Sentence,NULL,NULL,Filler-Gram,NULL
481,01,480,NULL,NULL,SentenceAudio/11a.wav,NULL,1.792,NULL,NULL,NULL
482,01,481,NULL,NULL,,NULL,NULL,NULL,NULL,NULL
483,01,482,1411,65,"<p>Was this sentence acceptable or unacceptab",Sentence,NULL,NULL,Grammatical,NULL
484,01,483,NULL,NULL,SentenceAudio/5d.wav,NULL,2.09067,NULL,NULL,NULL
485,01,484,NULL,NULL,,NULL,NULL,NULL,NULL,NULL
486,01,485,687,85,"<p>Was this sentence acceptable or unacceptab",Sentence,NULL,NULL,Filler-Gram,NULL
487,01,486,NULL,NULL,SentenceAudio/30a.wav,NULL,1.85867,NULL,NULL,NULL
488,01,487,NULL,NULL,,NULL,NULL,NULL,NULL,NULL
489,01,488,1612,65,"<p>Was this sentence acceptable or unacceptab",Sentence,NULL,NULL,Grammatical,NULL
490,01,489,NULL,NULL,SentenceAudio/10c.wav,NULL,2.12,NULL,NULL,NULL
491,01,490,NULL,NULL,,NULL,NULL,NULL,NULL,NULL
492,01,491,414,65,"<p>Was this sentence acceptable or unacceptab",Sentence,NULL,NULL,Ungrammatical,NULL
493,01,492,NULL,NULL,SentenceAudio/13a.wav,NULL,1.512,NULL,NULL,NULL
494,01,493,NULL,NULL,,NULL,NULL,NULL,NULL,NULL
495,01,494,1292,65,"<p>Was this sentence acceptable or unacceptab",Sentence,NULL,NULL,Grammatical,NULL
496,01,495,NULL,NULL,SentenceAudio/4a.wav,NULL,1.672,NULL,NULL,NULL
497,01,496,NULL,NULL,,NULL,NULL,NULL,NULL,NULL
498,01,497,262,65,"<p>Was this sentence acceptable or unacceptab",Sentence,NULL,NULL,Grammatical,NULL
499,01,498,NULL,NULL,SentenceAudio/27f.wav,NULL,2.37067,NULL,NULL,NULL
500,01,499,NULL,NULL,,NULL,NULL,NULL,NULL,NULL
501,01,500,2885,65,"<p>Was this sentence acceptable or unacceptab",Sentence,NULL,NULL,Filler-Ungram,NULL
502,01,501,NULL,NULL,SentenceAudio/30f.wav,NULL,2.512,NULL,NULL,NULL
503,01,502,NULL,NULL,,NULL,NULL,NULL,NULL,NULL
504,01,503,2124,65,"<p>Was this sentence acceptable or unacceptab",Sentence,NULL,NULL,Filler-Ungram,NULL
505,01,504,NULL,NULL,SentenceAudio/2c.wav,NULL,2.65067,NULL,NULL,NULL
506,01,505,NULL,NULL,,NULL,NULL,NULL,NULL,NULL
507,01,506,1426,65,"<p>Was this sentence acceptable or unacceptab",Sentence,NULL,NULL,Ungrammatical,NULL
508,01,507,NULL,NULL,SentenceAudio/27c.wav,NULL,2.08,NULL,NULL,NULL
509,01,508,NULL,NULL,,NULL,NULL,NULL,NULL,NULL
510,01,509,1083,65,"<p>Was this sentence acceptable or unacceptab",Sentence,NULL,NULL,Ungrammatical,NULL
511,01,510,NULL,NULL,SentenceAudio/7a.wav,NULL,1.58133,NULL,NULL,NULL
512,01,511,NULL,NULL,,NULL,NULL,NULL,NULL,NULL
513,01,512,646,65,"<p>Was this sentence acceptable or unacceptab",Sentence,NULL,NULL,Grammatical,NULL
514,01,513,NULL,NULL,SentenceAudio/10a.wav,NULL,1.352,NULL,NULL,NULL
515,01,514,NULL,NULL,,NULL,NULL,NULL,NULL,NULL
516,01,515,1906,65,"<p>Was this sentence acceptable or unacceptab",Sentence,NULL,NULL,Grammatical,NULL
517,01,516,NULL,NULL,SentenceAudio/24c.wav,NULL,2.68,NULL,NULL,NULL
518,01,517,NULL,NULL,,NULL,NULL,NULL,NULL,NULL
519,01,518,1978,85,"<p>Was this sentence acceptable or unacceptab",Sentence,NULL,NULL,Ungrammatical,NULL
520,01,519,NULL,NULL,SentenceAudio/4c.wav,NULL,2.21867,NULL,NULL,NULL
521,01,520,NULL,NULL,,NULL,NULL,NULL,NULL,NULL
522,01,521,1122,85,"<p>Was this sentence acceptable or unacceptab",Sentence,NULL,NULL,Ungrammatical,NULL
523,01,522,NULL,NULL,SentenceAudio/10d.wav,NULL,1.648,NULL,NULL,NULL
524,01,523,NULL,NULL,,NULL,NULL,NULL,NULL,NULL
525,01,524,3177,85,"<p>Was this sentence acceptable or unacceptab",Sentence,NULL,NULL,Filler-Gram,NULL
526,01,525,NULL,NULL,SentenceAudio/18f.wav,NULL,2.29867,NULL,NULL,NULL
527,01,526,NULL,NULL,,NULL,NULL,NULL,NULL,NULL
528,01,527,2151,65,"<p>Was this sentence acceptable or unacceptab",Sentence,NULL,NULL,Filler-Ungram,NULL
529,01,528,NULL,NULL,SentenceAudio/11f.wav,NULL,2.48,NULL,NULL,NULL
530,01,529,NULL,NULL,,NULL,NULL,NULL,NULL,NULL
531,01,530,1032,85,"<p>Was this sentence acceptable or unacceptab",Sentence,NULL,NULL,Filler-Ungram,NULL
532,01,531,NULL,NULL,SentenceAudio/21a.wav,NULL,1.90133,NULL,NULL,NULL
533,01,532,NULL,NULL,,NULL,NULL,NULL,NULL,NULL
534,01,533,303,65,"<p>Was this sentence acceptable or unacceptab",Sentence,NULL,NULL,Grammatical,NULL
535,01,534,NULL,NULL,SentenceAudio/21c-2.wav,NULL,2.26933,NULL,NULL,NULL
536,01,535,NULL,NULL,,NULL,NULL,NULL,NULL,NULL
537,01,536,1312,65,"<p>Was this sentence acceptable or unacceptab",Sentence,NULL,NULL,Ungrammatical,NULL
538,01,537,NULL,NULL,SentenceAudio/15a.wav,NULL,1.952,NULL,NULL,NULL
539,01,538,NULL,NULL,,NULL,NULL,NULL,NULL,NULL
540,01,539,2878,65,"<p>Was this sentence acceptable or unacceptab",Sentence,NULL,NULL,Grammatical,NULL
541,01,540,NULL,NULL,SentenceAudio/23c.wav,NULL,2.09067,NULL,NULL,NULL
542,01,541,NULL,NULL,,NULL,NULL,NULL,NULL,NULL
543,01,542,2000,85,"<p>Was this sentence acceptable or unacceptab",Sentence,NULL,NULL,Ungrammatical,NULL
544,01,543,NULL,NULL,SentenceAudio/3a.wav,NULL,1.74933,NULL,NULL,NULL
545,01,544,NULL,NULL,,NULL,NULL,NULL,NULL,NULL
546,01,545,1636,65,"<p>Was this sentence acceptable or unacceptab",Sentence,NULL,NULL,Grammatical,NULL
547,01,546,NULL,NULL,SentenceAudio/12a.wav,NULL,1.69067,NULL,NULL,NULL
548,01,547,NULL,NULL,,NULL,NULL,NULL,NULL,NULL
549,01,548,549,85,"<p>Was this sentence acceptable or unacceptab",Sentence,NULL,NULL,Grammatical,NULL
550,01,549,NULL,NULL,SentenceAudio/19c.wav,NULL,2.21867,NULL,NULL,NULL
551,01,550,NULL,NULL,,NULL,NULL,NULL,NULL,NULL
552,01,551,1507,85,"<p>Was this sentence acceptable or unacceptab",Sentence,NULL,NULL,Ungrammatical,NULL
553,01,552,NULL,NULL,SentenceAudio/22a.wav,NULL,1.66933,NULL,NULL,NULL
554,01,553,NULL,NULL,,NULL,NULL,NULL,NULL,NULL
555,01,554,2515,65,"<p>Was this sentence acceptable or unacceptab",Sentence,NULL,NULL,Grammatical,NULL
556,01,555,NULL,NULL,SentenceAudio/16c.wav,NULL,2.112,NULL,NULL,NULL
557,01,556,NULL,NULL,,NULL,NULL,NULL,NULL,NULL
558,01,557,3090,65,"<p>Was this sentence acceptable or unacceptab",Sentence,NULL,NULL,Ungrammatical,NULL
559,01,558,NULL,NULL,SentenceAudio/23d.wav,NULL,1.68,NULL,NULL,NULL
560,01,559,NULL,NULL,,NULL,NULL,NULL,NULL,NULL
561,01,560,4822,65,"<p>Was this sentence acceptable or unacceptab",Sentence,NULL,NULL,Filler-Gram,NULL
562,01,561,NULL,NULL,SentenceAudio/1a.wav,NULL,1.58933,NULL,NULL,NULL
563,01,562,NULL,NULL,,NULL,NULL,NULL,NULL,NULL
564,01,563,875,65,"<p>Was this sentence acceptable or unacceptab",Sentence,NULL,NULL,Grammatical,NULL
565,01,564,NULL,NULL,SentenceAudio/27a.wav,NULL,1.488,NULL,NULL,NULL
566,01,565,NULL,NULL,,NULL,NULL,NULL,NULL,NULL
567,01,566,1868,85,"<p>Was this sentence acceptable or unacceptab",Sentence,NULL,NULL,Grammatical,NULL
568,02,0,32863,NULL,NULL,NULL,NULL,NULL,NULL,NULL
569,02,1,2675760,32,"<p>In this experiment, you will be presented ",NULL,NULL,NULL,NULL,NULL
570,02,2,2911,65,"<p>Whenever you hear sentences that are sensi",NULL,NULL,NULL,NULL,NULL
571,02,3,1832,85,"<p>Whenever you hear sentences that are bizar",NULL,NULL,NULL,NULL,NULL
572,02,4,2527,65,"<p>Whenever you hear a musical phrase that so",NULL,NULL,NULL,NULL,NULL
573,02,5,1463,85,"<p>Whenever you hear a musical phrase that so",NULL,NULL,NULL,NULL,NULL
574,02,6,1984,32,"<p>Now you will have a chance to practice whi",NULL,NULL,NULL,NULL,NULL
575,02,7,4123,32,"<p>First you will get a chance to practice wi",NULL,NULL,NULL,NULL,NULL
576,02,8,NULL,NULL,PracticeSentencesAudio/Sample1c.wav,NULL,0,NULL,NULL,NULL
577,02,9,NULL,NULL,,NULL,NULL,NULL,NULL,NULL
578,02,10,1760,65,"<p>Was this sentence acceptable or unacceptab",Sentence,NULL,NULL,Ungrammatical-PRACTICE,NULL
579,02,11,NULL,NULL,PracticeSentencesAudio/Sample3c.wav,NULL,0,NULL,NULL,NULL
580,02,12,NULL,NULL,,NULL,NULL,NULL,NULL,NULL
581,02,13,1538,85,"<p>Was this sentence acceptable or unacceptab",Sentence,NULL,NULL,Ungrammatical-PRACTICE,NULL
582,02,14,NULL,NULL,PracticeSentencesAudio/Sample3a.wav,NULL,0,NULL,NULL,NULL
583,02,15,NULL,NULL,,NULL,NULL,NULL,NULL,NULL
584,02,16,412,65,"<p>Was this sentence acceptable or unacceptab",Sentence,NULL,NULL,Grammatical-PRACTICE,NULL
585,02,17,NULL,NULL,PracticeSentencesAudio/Sample1a.wav,NULL,0.008,NULL,NULL,NULL
586,02,18,NULL,NULL,,NULL,NULL,NULL,NULL,NULL
587,02,19,742,65,"<p>Was this sentence acceptable or unacceptab",Sentence,NULL,NULL,Grammatical-PRACTICE,NULL
588,02,20,NULL,NULL,PracticeSentencesAudio/Sample2a.wav,NULL,0.008,NULL,NULL,NULL
589,02,21,NULL,NULL,,NULL,NULL,NULL,NULL,NULL
590,02,22,312,65,"<p>Was this sentence acceptable or unacceptab",Sentence,NULL,NULL,Grammatical-PRACTICE,NULL
591,02,23,NULL,NULL,PracticeSentencesAudio/Sample2c.wav,NULL,0.008,NULL,NULL,NULL
592,02,24,NULL,NULL,,NULL,NULL,NULL,NULL,NULL
593,02,25,476,85,"<p>Was this sentence acceptable or unacceptab",Sentence,NULL,NULL,Ungrammatical-PRACTICE,NULL
594,02,26,1736,32,"<p>Now you will get a chance to practice with",NULL,NULL,NULL,NULL,NULL
595,02,27,NULL,NULL,PracticeMusicAudio/SMusicC1D.wav,NULL,0.008,NULL,NULL,NULL
596,02,28,NULL,NULL,,NULL,NULL,NULL,NULL,NULL
597,02,29,810,65,"<p>Was this musical phrase acceptable or unac",Music,NULL,NULL,In-Key-PRACTICE,NULL
598,02,30,NULL,NULL,PracticeMusicAudio/SMusicC4D.wav,NULL,0,NULL,NULL,NULL
599,02,31,NULL,NULL,,NULL,NULL,NULL,NULL,NULL
600,02,32,902,85,"<p>Was this musical phrase acceptable or unac",Music,NULL,NULL,Distant-Key-PRACTICE,NULL
601,02,33,NULL,NULL,PracticeMusicAudio/SMusicC4F.wav,NULL,0.008,NULL,NULL,NULL
602,02,34,NULL,NULL,,NULL,NULL,NULL,NULL,NULL
603,02,35,12162,85,"<p>Was this musical phrase acceptable or unac",Music,NULL,NULL,Distant-Key-PRACTICE,NULL
604,02,36,NULL,NULL,PracticeMusicAudio/SMusicC1F.wav,NULL,0,NULL,NULL,NULL
605,02,37,NULL,NULL,,NULL,NULL,NULL,NULL,NULL
606,02,38,419,65,"<p>Was this musical phrase acceptable or unac",Music,NULL,NULL,In-Key-PRACTICE,NULL
607,02,39,NULL,NULL,PracticeMusicAudio/SMusicC4C.wav,NULL,0,NULL,NULL,NULL
608,02,40,NULL,NULL,,NULL,NULL,NULL,NULL,NULL
609,02,41,427,85,"<p>Was this musical phrase acceptable or unac",Music,NULL,NULL,Distant-Key-PRACTICE,NULL
610,02,42,NULL,NULL,PracticeMusicAudio/SMusicC1C.wav,NULL,0.008,NULL,NULL,NULL
611,02,43,NULL,NULL,,NULL,NULL,NULL,NULL,NULL
612,02,44,321,65,"<p>Was this musical phrase acceptable or unac",Music,NULL,NULL,In-Key-PRACTICE,NULL
613,02,45,94148,32,"<p>In the remaining part of the experiment, t",NULL,NULL,NULL,NULL,NULL
614,02,46,7055,32,"<p>It is very important that you do not blink",NULL,NULL,NULL,NULL,NULL
615,02,47,NULL,NULL,SentenceAudio/28a.wav,NULL,1.64,NULL,NULL,NULL
616,02,48,NULL,NULL,,NULL,NULL,NULL,NULL,NULL
617,02,49,661,65,"<p>Was this sentence acceptable or unacceptab",Sentence,NULL,NULL,Grammatical,NULL
618,02,50,NULL,NULL,SentenceAudio/19c.wav,NULL,2.21867,NULL,NULL,NULL
619,02,51,NULL,NULL,,NULL,NULL,NULL,NULL,NULL
620,02,52,1085,85,"<p>Was this sentence acceptable or unacceptab",Sentence,NULL,NULL,Ungrammatical,NULL
621,02,53,NULL,NULL,SentenceAudio/15f.wav,NULL,2.76,NULL,NULL,NULL
622,02,54,NULL,NULL,,NULL,NULL,NULL,NULL,NULL
623,02,55,1223,65,"<p>Was this sentence acceptable or unacceptab",Sentence,NULL,NULL,Filler-Ungram,NULL
624,02,56,NULL,NULL,SentenceAudio/29f.wav,NULL,2.56,NULL,NULL,NULL
625,02,57,NULL,NULL,,NULL,NULL,NULL,NULL,NULL
626,02,58,5009,85,"<p>Was this sentence acceptable or unacceptab",Sentence,NULL,NULL,Filler-Ungram,NULL
627,02,59,NULL,NULL,SentenceAudio/7d.wav,NULL,1.792,NULL,NULL,NULL
628,02,60,NULL,NULL,,NULL,NULL,NULL,NULL,NULL
629,02,61,3178,85,"<p>Was this sentence acceptable or unacceptab",Sentence,NULL,NULL,Filler-Gram,NULL
630,02,62,NULL,NULL,SentenceAudio/5c.wav,NULL,2.52,NULL,NULL,NULL
631,02,63,NULL,NULL,,NULL,NULL,NULL,NULL,NULL
632,02,64,483,85,"<p>Was this sentence acceptable or unacceptab",Sentence,NULL,NULL,Ungrammatical,NULL
633,02,65,NULL,NULL,SentenceAudio/15c.wav,NULL,2.41067,NULL,NULL,NULL
634,02,66,NULL,NULL,,NULL,NULL,NULL,NULL,NULL
635,02,67,563,85,"<p>Was this sentence acceptable or unacceptab",Sentence,NULL,NULL,Ungrammatical,NULL
636,02,68,NULL,NULL,SentenceAudio/27f.wav,NULL,2.36,NULL,NULL,NULL
637,02,69,NULL,NULL,,NULL,NULL,NULL,NULL,NULL
638,02,70,456,65,"<p>Was this sentence acceptable or unacceptab",Sentence,NULL,NULL,Filler-Ungram,NULL
639,02,71,NULL,NULL,SentenceAudio/26f.wav,NULL,2.42133,NULL,NULL,NULL
640,02,72,NULL,NULL,,NULL,NULL,NULL,NULL,NULL
641,02,73,4960,85,"<p>Was this sentence acceptable or unacceptab",Sentence,NULL,NULL,Filler-Ungram,NULL
642,02,74,NULL,NULL,SentenceAudio/12a.wav,NULL,1.688,NULL,NULL,NULL
643,02,75,NULL,NULL,,NULL,NULL,NULL,NULL,NULL
644,02,76,412,65,"<p>Was this sentence acceptable or unacceptab",Sentence,NULL,NULL,Grammatical,NULL
645,02,77,NULL,NULL,SentenceAudio/30c.wav,NULL,2.29067,NULL,NULL,NULL
646,02,78,NULL,NULL,,NULL,NULL,NULL,NULL,NULL
647,02,79,556,85,"<p>Was this sentence acceptable or unacceptab",Sentence,NULL,NULL,Ungrammatical,NULL
648,02,80,NULL,NULL,SentenceAudio/21c-2.wav,NULL,2.26933,NULL,NULL,NULL
649,02,81,NULL,NULL,,NULL,NULL,NULL,NULL,NULL
650,02,82,571,85,"<p>Was this sentence acceptable or unacceptab",Sentence,NULL,NULL,Ungrammatical,NULL
651,02,83,NULL,NULL,SentenceAudio/25a.wav,NULL,1.65067,NULL,NULL,NULL
652,02,84,NULL,NULL,,NULL,NULL,NULL,NULL,NULL
653,02,85,6044,65,"<p>Was this sentence acceptable or unacceptab",Sentence,NULL,NULL,Grammatical,NULL
654,02,86,NULL,NULL,SentenceAudio/11f.wav,NULL,2.48,NULL,NULL,NULL
655,02,87,NULL,NULL,,NULL,NULL,NULL,NULL,NULL
656,02,88,617,65,"<p>Was this sentence acceptable or unacceptab",Sentence,NULL,NULL,Filler-Ungram,NULL
657,02,89,NULL,NULL,SentenceAudio/29c.wav,NULL,2.168,NULL,NULL,NULL
658,02,90,NULL,NULL,,NULL,NULL,NULL,NULL,NULL
659,02,91,664,85,"<p>Was this sentence acceptable or unacceptab",Sentence,NULL,NULL,Ungrammatical,NULL
660,02,92,NULL,NULL,SentenceAudio/26d.wav,NULL,1.57067,NULL,NULL,NULL
661,02,93,NULL,NULL,,NULL,NULL,NULL,NULL,NULL
662,02,94,1665,85,"<p>Was this sentence acceptable or unacceptab",Sentence,NULL,NULL,Filler-Gram,NULL
663,02,95,NULL,NULL,SentenceAudio/29d.wav,NULL,1.77067,NULL,NULL,NULL
664,02,96,NULL,NULL,,NULL,NULL,NULL,NULL,NULL
665,02,97,1158,85,"<p>Was this sentence acceptable or unacceptab",Sentence,NULL,NULL,Filler-Gram,NULL
666,02,98,NULL,NULL,SentenceAudio/27d.wav,NULL,1.74933,NULL,NULL,NULL
667,02,99,NULL,NULL,,NULL,NULL,NULL,NULL,NULL
668,02,100,3730,85,"<p>Was this sentence acceptable or unacceptab",Sentence,NULL,NULL,Filler-Gram,NULL
669,02,101,NULL,NULL,SentenceAudio/28f.wav,NULL,2.37067,NULL,NULL,NULL
670,02,102,NULL,NULL,,NULL,NULL,NULL,NULL,NULL
671,02,103,377,65,"<p>Was this sentence acceptable or unacceptab",Sentence,NULL,NULL,Filler-Ungram,NULL
672,02,104,NULL,NULL,SentenceAudio/17f.wav,NULL,2.49867,NULL,NULL,NULL
673,02,105,NULL,NULL,,NULL,NULL,NULL,NULL,NULL
674,02,106,1103,65,"<p>Was this sentence acceptable or unacceptab",Sentence,NULL,NULL,Filler-Ungram,NULL
675,02,107,NULL,NULL,SentenceAudio/8d.wav,NULL,1.912,NULL,NULL,NULL
676,02,108,NULL,NULL,,NULL,NULL,NULL,NULL,NULL
677,02,109,1594,85,"<p>Was this sentence acceptable or unacceptab",Sentence,NULL,NULL,Filler-Gram,NULL
678,02,110,NULL,NULL,SentenceAudio/21f-2.wav,NULL,1.92,NULL,NULL,NULL
679,02,111,NULL,NULL,,NULL,NULL,NULL,NULL,NULL
680,02,112,1484,65,"<p>Was this sentence acceptable or unacceptab",Sentence,NULL,NULL,Filler-Ungram,NULL
681,02,113,NULL,NULL,SentenceAudio/7a.wav,NULL,1.592,NULL,NULL,NULL
682,02,114,NULL,NULL,,NULL,NULL,NULL,NULL,NULL
683,02,115,1344,65,"<p>Was this sentence acceptable or unacceptab",Sentence,NULL,NULL,Grammatical,NULL
684,02,116,NULL,NULL,SentenceAudio/25d.wav,NULL,1.85067,NULL,NULL,NULL
685,02,117,NULL,NULL,,NULL,NULL,NULL,NULL,NULL
686,02,118,370,85,"<p>Was this sentence acceptable or unacceptab",Sentence,NULL,NULL,Filler-Gram,NULL
687,02,119,NULL,NULL,SentenceAudio/14c.wav,NULL,2.16,NULL,NULL,NULL
688,02,120,NULL,NULL,,NULL,NULL,NULL,NULL,NULL
689,02,121,356,85,"<p>Was this sentence acceptable or unacceptab",Sentence,NULL,NULL,Ungrammatical,NULL
690,02,122,NULL,NULL,SentenceAudio/22f.wav,NULL,1.46133,NULL,NULL,NULL
691,02,123,NULL,NULL,,NULL,NULL,NULL,NULL,NULL
692,02,124,500,65,"<p>Was this sentence acceptable or unacceptab",Sentence,NULL,NULL,Filler-Ungram,NULL
693,02,125,NULL,NULL,SentenceAudio/5a.wav,NULL,1.62933,NULL,NULL,NULL
694,02,126,NULL,NULL,,NULL,NULL,NULL,NULL,NULL
695,02,127,1604,65,"<p>Was this sentence acceptable or unacceptab",Sentence,NULL,NULL,Grammatical,NULL
696,02,128,NULL,NULL,SentenceAudio/7c.wav,NULL,2.25067,NULL,NULL,NULL
697,02,129,NULL,NULL,,NULL,NULL,NULL,NULL,NULL
698,02,130,398,85,"<p>Was this sentence acceptable or unacceptab",Sentence,NULL,NULL,Ungrammatical,NULL
699,02,131,NULL,NULL,SentenceAudio/2a.wav,NULL,1.8,NULL,NULL,NULL
700,02,132,NULL,NULL,,NULL,NULL,NULL,NULL,NULL
701,02,133,883,65,"<p>Was this sentence acceptable or unacceptab",Sentence,NULL,NULL,Grammatical,NULL
702,02,134,NULL,NULL,SentenceAudio/1a.wav,NULL,1.58933,NULL,NULL,NULL
703,02,135,NULL,NULL,,NULL,NULL,NULL,NULL,NULL
704,02,136,1454,65,"<p>Was this sentence acceptable or unacceptab",Sentence,NULL,NULL,Grammatical,NULL
705,02,137,NULL,NULL,SentenceAudio/10a.wav,NULL,1.36,NULL,NULL,NULL
706,02,138,NULL,NULL,,NULL,NULL,NULL,NULL,NULL
707,02,139,891,65,"<p>Was this sentence acceptable or unacceptab",Sentence,NULL,NULL,Grammatical,NULL
708,02,140,NULL,NULL,SentenceAudio/30f.wav,NULL,2.50933,NULL,NULL,NULL
709,02,141,NULL,NULL,,NULL,NULL,NULL,NULL,NULL
710,02,142,713,65,"<p>Was this sentence acceptable or unacceptab",Sentence,NULL,NULL,Filler-Ungram,NULL
711,02,143,NULL,NULL,SentenceAudio/9a.wav,NULL,1.672,NULL,NULL,NULL
712,02,144,NULL,NULL,,NULL,NULL,NULL,NULL,NULL
713,02,145,1654,65,"<p>Was this sentence acceptable or unacceptab",Sentence,NULL,NULL,Grammatical,NULL
714,02,146,3583,32,"<p>That is the end of the first set of sound ",NULL,NULL,NULL,NULL,NULL
715,02,147,NULL,NULL,MusicAudio/036aniC1.wav,NULL,4,NULL,NULL,NULL
716,02,148,NULL,NULL,,NULL,NULL,NULL,NULL,NULL
717,02,149,1695,65,"<p>Was this musical phrase acceptable or unac",Music,NULL,NULL,In-Key,NULL
718,02,150,NULL,NULL,MusicAudio/022aniC4.wav,NULL,2,NULL,NULL,NULL
719,02,151,NULL,NULL,,NULL,NULL,NULL,NULL,NULL
720,02,152,425,85,"<p>Was this musical phrase acceptable or unac",Music,NULL,NULL,Distant-Key,NULL
721,02,153,NULL,NULL,MusicAudio/08aniC4.wav,NULL,3,NULL,NULL,NULL
722,02,154,NULL,NULL,,NULL,NULL,NULL,NULL,NULL
723,02,155,383,85,"<p>Was this musical phrase acceptable or unac",Music,NULL,NULL,Distant-Key,NULL
724,02,156,NULL,NULL,MusicAudio/033aniC1.wav,NULL,4,NULL,NULL,NULL
725,02,157,NULL,NULL,,NULL,NULL,NULL,NULL,NULL
726,02,158,445,65,"<p>Was this musical phrase acceptable or unac",Music,NULL,NULL,In-Key,NULL
727,02,159,NULL,NULL,MusicAudio/025aniC1.wav,NULL,3.25067,NULL,NULL,NULL
728,02,160,NULL,NULL,,NULL,NULL,NULL,NULL,NULL
729,02,161,993,65,"<p>Was this musical phrase acceptable or unac",Music,NULL,NULL,In-Key,NULL
730,02,162,NULL,NULL,MusicAudio/031aniC1.wav,NULL,1.49867,NULL,NULL,NULL
731,02,163,NULL,NULL,,NULL,NULL,NULL,NULL,NULL
732,02,164,469,65,"<p>Was this musical phrase acceptable or unac",Music,NULL,NULL,In-Key,NULL
733,02,165,NULL,NULL,MusicAudio/02aniC4.wav,NULL,4,NULL,NULL,NULL
734,02,166,NULL,NULL,,NULL,NULL,NULL,NULL,NULL
735,02,167,341,85,"<p>Was this musical phrase acceptable or unac",Music,NULL,NULL,Distant-Key,NULL
736,02,168,NULL,NULL,MusicAudio/021aniC1.wav,NULL,2,NULL,NULL,NULL
737,02,169,NULL,NULL,,NULL,NULL,NULL,NULL,NULL
738,02,170,1529,85,"<p>Was this musical phrase acceptable or unac",Music,NULL,NULL,In-Key,NULL
739,02,171,NULL,NULL,MusicAudio/024aniC4.wav,NULL,3.25067,NULL,NULL,NULL
740,02,172,NULL,NULL,,NULL,NULL,NULL,NULL,NULL
741,02,173,282,85,"<p>Was this musical phrase acceptable or unac",Music,NULL,NULL,Distant-Key,NULL
742,02,174,NULL,NULL,MusicAudio/021aniC4.wav,NULL,2.01067,NULL,NULL,NULL
743,02,175,NULL,NULL,,NULL,NULL,NULL,NULL,NULL
744,02,176,1303,85,"<p>Was this musical phrase acceptable or unac",Music,NULL,NULL,Distant-Key,NULL
745,02,177,NULL,NULL,MusicAudio/03aniC1.wav,NULL,3,NULL,NULL,NULL
746,02,178,NULL,NULL,,NULL,NULL,NULL,NULL,NULL
747,02,179,337,65,"<p>Was this musical phrase acceptable or unac",Music,NULL,NULL,In-Key,NULL
748,02,180,NULL,NULL,MusicAudio/011aniC4.wav,NULL,4.512,NULL,NULL,NULL
749,02,181,NULL,NULL,,NULL,NULL,NULL,NULL,NULL
750,02,182,1544,85,"<p>Was this musical phrase acceptable or unac",Music,NULL,NULL,Distant-Key,NULL
751,02,183,NULL,NULL,MusicAudio/04aniC1.wav,NULL,5,NULL,NULL,NULL
752,02,184,NULL,NULL,,NULL,NULL,NULL,NULL,NULL
753,02,185,718,65,"<p>Was this musical phrase acceptable or unac",Music,NULL,NULL,In-Key,NULL
754,02,186,NULL,NULL,MusicAudio/034aniC1.wav,NULL,4,NULL,NULL,NULL
755,02,187,NULL,NULL,,NULL,NULL,NULL,NULL,NULL
756,02,188,215,65,"<p>Was this musical phrase acceptable or unac",Music,NULL,NULL,In-Key,NULL
757,02,189,NULL,NULL,MusicAudio/023aniC4.wav,NULL,4,NULL,NULL,NULL
758,02,190,NULL,NULL,,NULL,NULL,NULL,NULL,NULL
759,02,191,269,85,"<p>Was this musical phrase acceptable or unac",Music,NULL,NULL,Distant-Key,NULL
760,02,192,NULL,NULL,MusicAudio/010aniC1.wav,NULL,1.49867,NULL,NULL,NULL
761,02,193,NULL,NULL,,NULL,NULL,NULL,NULL,NULL
762,02,194,302,65,"<p>Was this musical phrase acceptable or unac",Music,NULL,NULL,In-Key,NULL
763,02,195,NULL,NULL,MusicAudio/012aniC1.wav,NULL,3.512,NULL,NULL,NULL
764,02,196,NULL,NULL,,NULL,NULL,NULL,NULL,NULL
765,02,197,364,65,"<p>Was this musical phrase acceptable or unac",Music,NULL,NULL,In-Key,NULL
766,02,198,NULL,NULL,MusicAudio/013aniC1.wav,NULL,3,NULL,NULL,NULL
767,02,199,NULL,NULL,,NULL,NULL,NULL,NULL,NULL
768,02,200,666,85,"<p>Was this musical phrase acceptable or unac",Music,NULL,NULL,In-Key,NULL
769,02,201,NULL,NULL,MusicAudio/028aniC4.wav,NULL,3.49867,NULL,NULL,NULL
770,02,202,NULL,NULL,,NULL,NULL,NULL,NULL,NULL
771,02,203,248,85,"<p>Was this musical phrase acceptable or unac",Music,NULL,NULL,Distant-Key,NULL
772,02,204,NULL,NULL,MusicAudio/027aniC1.wav,NULL,5.01067,NULL,NULL,NULL
773,02,205,NULL,NULL,,NULL,NULL,NULL,NULL,NULL
774,02,206,292,65,"<p>Was this musical phrase acceptable or unac",Music,NULL,NULL,In-Key,NULL
775,02,207,NULL,NULL,MusicAudio/032aniC4.wav,NULL,2.512,NULL,NULL,NULL
776,02,208,NULL,NULL,,NULL,NULL,NULL,NULL,NULL
777,02,209,331,85,"<p>Was this musical phrase acceptable or unac",Music,NULL,NULL,Distant-Key,NULL
778,02,210,NULL,NULL,MusicAudio/033aniC4.wav,NULL,4,NULL,NULL,NULL
779,02,211,NULL,NULL,,NULL,NULL,NULL,NULL,NULL
780,02,212,312,85,"<p>Was this musical phrase acceptable or unac",Music,NULL,NULL,Distant-Key,NULL
781,02,213,NULL,NULL,MusicAudio/020aniC4.wav,NULL,1.512,NULL,NULL,NULL
782,02,214,NULL,NULL,,NULL,NULL,NULL,NULL,NULL
783,02,215,468,85,"<p>Was this musical phrase acceptable or unac",Music,NULL,NULL,Distant-Key,NULL
784,02,216,NULL,NULL,MusicAudio/01aniC1.wav,NULL,4,NULL,NULL,NULL
785,02,217,NULL,NULL,,NULL,NULL,NULL,NULL,NULL
786,02,218,360,65,"<p>Was this musical phrase acceptable or unac",Music,NULL,NULL,In-Key,NULL
787,02,219,NULL,NULL,MusicAudio/027aniC4.wav,NULL,5,NULL,NULL,NULL
788,02,220,NULL,NULL,,NULL,NULL,NULL,NULL,NULL
789,02,221,476,85,"<p>Was this musical phrase acceptable or unac",Music,NULL,NULL,Distant-Key,NULL
790,02,222,NULL,NULL,MusicAudio/029aniC4.wav,NULL,2.49867,NULL,NULL,NULL
791,02,223,NULL,NULL,,NULL,NULL,NULL,NULL,NULL
792,02,224,657,65,"<p>Was this musical phrase acceptable or unac",Music,NULL,NULL,Distant-Key,NULL
793,02,225,NULL,NULL,MusicAudio/018aniC1.wav,NULL,3,NULL,NULL,NULL
794,02,226,NULL,NULL,,NULL,NULL,NULL,NULL,NULL
795,02,227,342,65,"<p>Was this musical phrase acceptable or unac",Music,NULL,NULL,In-Key,NULL
796,02,228,NULL,NULL,MusicAudio/016aniC4.wav,NULL,5.01067,NULL,NULL,NULL
797,02,229,NULL,NULL,,NULL,NULL,NULL,NULL,NULL
798,02,230,410,85,"<p>Was this musical phrase acceptable or unac",Music,NULL,NULL,Distant-Key,NULL
799,02,231,NULL,NULL,MusicAudio/016aniC1.wav,NULL,5,NULL,NULL,NULL
800,02,232,NULL,NULL,,NULL,NULL,NULL,NULL,NULL
801,02,233,240,65,"<p>Was this musical phrase acceptable or unac",Music,NULL,NULL,In-Key,NULL
802,02,234,NULL,NULL,MusicAudio/02aniC1.wav,NULL,4,NULL,NULL,NULL
803,02,235,NULL,NULL,,NULL,NULL,NULL,NULL,NULL
804,02,236,395,65,"<p>Was this musical phrase acceptable or unac",Music,NULL,NULL,In-Key,NULL
805,02,237,NULL,NULL,MusicAudio/017aniC4.wav,NULL,2.50133,NULL,NULL,NULL
806,02,238,NULL,NULL,,NULL,NULL,NULL,NULL,NULL
807,02,239,1425,85,"<p>Was this musical phrase acceptable or unac",Music,NULL,NULL,Distant-Key,NULL
808,02,240,NULL,NULL,MusicAudio/07aniC4.wav,NULL,6,NULL,NULL,NULL
809,02,241,NULL,NULL,,NULL,NULL,NULL,NULL,NULL
810,02,242,350,85,"<p>Was this musical phrase acceptable or unac",Music,NULL,NULL,Distant-Key,NULL
811,02,243,NULL,NULL,MusicAudio/015aniC4.wav,NULL,2,NULL,NULL,NULL
812,02,244,NULL,NULL,,NULL,NULL,NULL,NULL,NULL
813,02,245,408,85,"<p>Was this musical phrase acceptable or unac",Music,NULL,NULL,Distant-Key,NULL
814,02,246,NULL,NULL,MusicAudio/030aniC1.wav,NULL,3,NULL,NULL,NULL
815,02,247,NULL,NULL,,NULL,NULL,NULL,NULL,NULL
816,02,248,382,65,"<p>Was this musical phrase acceptable or unac",Music,NULL,NULL,In-Key,NULL
817,02,249,NULL,NULL,MusicAudio/022aniC1.wav,NULL,2.01067,NULL,NULL,NULL
818,02,250,NULL,NULL,,NULL,NULL,NULL,NULL,NULL
819,02,251,371,65,"<p>Was this musical phrase acceptable or unac",Music,NULL,NULL,In-Key,NULL
820,02,252,NULL,NULL,MusicAudio/05aniC4.wav,NULL,5,NULL,NULL,NULL
821,02,253,NULL,NULL,,NULL,NULL,NULL,NULL,NULL
822,02,254,336,85,"<p>Was this musical phrase acceptable or unac",Music,NULL,NULL,Distant-Key,NULL
823,02,255,6831,32,"<p>That is the end of the second set of sound",NULL,NULL,NULL,NULL,NULL
824,02,256,NULL,NULL,SentenceAudio/20a.wav,NULL,1.61867,NULL,NULL,NULL
825,02,257,NULL,NULL,,NULL,NULL,NULL,NULL,NULL
826,02,258,563,65,"<p>Was this sentence acceptable or unacceptab",Sentence,NULL,NULL,Grammatical,NULL
827,02,259,NULL,NULL,SentenceAudio/3c.wav,NULL,2.17067,NULL,NULL,NULL
828,02,260,NULL,NULL,,NULL,NULL,NULL,NULL,NULL
829,02,261,419,85,"<p>Was this sentence acceptable or unacceptab",Sentence,NULL,NULL,Ungrammatical,NULL
830,02,262,NULL,NULL,SentenceAudio/12f.wav,NULL,2.45067,NULL,NULL,NULL
831,02,263,NULL,NULL,,NULL,NULL,NULL,NULL,NULL
832,02,264,1551,65,"<p>Was this sentence acceptable or unacceptab",Sentence,NULL,NULL,Filler-Ungram,NULL
833,02,265,NULL,NULL,SentenceAudio/10d.wav,NULL,1.65067,NULL,NULL,NULL
834,02,266,NULL,NULL,,NULL,NULL,NULL,NULL,NULL
835,02,267,1927,65,"<p>Was this sentence acceptable or unacceptab",Sentence,NULL,NULL,Filler-Gram,NULL
836,02,268,NULL,NULL,SentenceAudio/24d.wav,NULL,1.93067,NULL,NULL,NULL
837,02,269,NULL,NULL,,NULL,NULL,NULL,NULL,NULL
838,02,270,374,85,"<p>Was this sentence acceptable or unacceptab",Sentence,NULL,NULL,Filler-Gram,NULL
839,02,271,NULL,NULL,SentenceAudio/9d.wav,NULL,1.672,NULL,NULL,NULL
840,02,272,NULL,NULL,,NULL,NULL,NULL,NULL,NULL
841,02,273,282,85,"<p>Was this sentence acceptable or unacceptab",Sentence,NULL,NULL,Filler-Gram,NULL
842,02,274,NULL,NULL,SentenceAudio/23d.wav,NULL,1.66933,NULL,NULL,NULL
843,02,275,NULL,NULL,,NULL,NULL,NULL,NULL,NULL
844,02,276,540,85,"<p>Was this sentence acceptable or unacceptab",Sentence,NULL,NULL,Filler-Gram,NULL
845,02,277,NULL,NULL,SentenceAudio/26a.wav,NULL,1.648,NULL,NULL,NULL
846,02,278,NULL,NULL,,NULL,NULL,NULL,NULL,NULL
847,02,279,1098,65,"<p>Was this sentence acceptable or unacceptab",Sentence,NULL,NULL,Grammatical,NULL
848,02,280,NULL,NULL,SentenceAudio/23f.wav,NULL,2.69867,NULL,NULL,NULL
849,02,281,NULL,NULL,,NULL,NULL,NULL,NULL,NULL
850,02,282,3437,65,"<p>Was this sentence acceptable or unacceptab",Sentence,NULL,NULL,Filler-Ungram,NULL
851,02,283,NULL,NULL,SentenceAudio/23a.wav,NULL,1.52,NULL,NULL,NULL
852,02,284,NULL,NULL,,NULL,NULL,NULL,NULL,NULL
853,02,285,708,65,"<p>Was this sentence acceptable or unacceptab",Sentence,NULL,NULL,Grammatical,NULL
854,02,286,NULL,NULL,SentenceAudio/18c.wav,NULL,2.616,NULL,NULL,NULL
855,02,287,NULL,NULL,,NULL,NULL,NULL,NULL,NULL
856,02,288,408,85,"<p>Was this sentence acceptable or unacceptab",Sentence,NULL,NULL,Ungrammatical,NULL
857,02,289,NULL,NULL,SentenceAudio/18a.wav,NULL,1.92,NULL,NULL,NULL
858,02,290,NULL,NULL,,NULL,NULL,NULL,NULL,NULL
859,02,291,545,65,"<p>Was this sentence acceptable or unacceptab",Sentence,NULL,NULL,Grammatical,NULL
860,02,292,NULL,NULL,SentenceAudio/6d.wav,NULL,1.552,NULL,NULL,NULL
861,02,293,NULL,NULL,,NULL,NULL,NULL,NULL,NULL
862,02,294,273,85,"<p>Was this sentence acceptable or unacceptab",Sentence,NULL,NULL,Filler-Gram,NULL
863,02,295,NULL,NULL,SentenceAudio/24f.wav,NULL,2.69067,NULL,NULL,NULL
864,02,296,NULL,NULL,,NULL,NULL,NULL,NULL,NULL
865,02,297,494,65,"<p>Was this sentence acceptable or unacceptab",Sentence,NULL,NULL,Filler-Ungram,NULL
866,02,298,NULL,NULL,SentenceAudio/26c.wav,NULL,2.45067,NULL,NULL,NULL
867,02,299,NULL,NULL,,NULL,NULL,NULL,NULL,NULL
868,02,300,472,85,"<p>Was this sentence acceptable or unacceptab",Sentence,NULL,NULL,Ungrammatical,NULL
869,02,301,NULL,NULL,SentenceAudio/15a.wav,NULL,1.94133,NULL,NULL,NULL
870,02,302,NULL,NULL,,NULL,NULL,NULL,NULL,NULL
871,02,303,670,65,"<p>Was this sentence acceptable or unacceptab",Sentence,NULL,NULL,Grammatical,NULL
872,02,304,NULL,NULL,SentenceAudio/12c.wav,NULL,1.77067,NULL,NULL,NULL
873,02,305,NULL,NULL,,NULL,NULL,NULL,NULL,NULL
874,02,306,474,85,"<p>Was this sentence acceptable or unacceptab",Sentence,NULL,NULL,Ungrammatical,NULL
875,02,307,NULL,NULL,SentenceAudio/5d.wav,NULL,2.09067,NULL,NULL,NULL
876,02,308,NULL,NULL,,NULL,NULL,NULL,NULL,NULL
877,02,309,608,85,"<p>Was this sentence acceptable or unacceptab",Sentence,NULL,NULL,Filler-Gram,NULL
878,02,310,NULL,NULL,SentenceAudio/8c.wav,NULL,2.008,NULL,NULL,NULL
879,02,311,NULL,NULL,,NULL,NULL,NULL,NULL,NULL
880,02,312,393,85,"<p>Was this sentence acceptable or unacceptab",Sentence,NULL,NULL,Ungrammatical,NULL
881,02,313,NULL,NULL,SentenceAudio/11a.wav,NULL,1.792,NULL,NULL,NULL
882,02,314,NULL,NULL,,NULL,NULL,NULL,NULL,NULL
883,02,315,336,65,"<p>Was this sentence acceptable or unacceptab",Sentence,NULL,NULL,Grammatical,NULL
884,02,316,NULL,NULL,SentenceAudio/11c.wav,NULL,2.6,NULL,NULL,NULL
885,02,317,NULL,NULL,,NULL,NULL,NULL,NULL,NULL
886,02,318,838,85,"<p>Was this sentence acceptable or unacceptab",Sentence,NULL,NULL,Ungrammatical,NULL
887,02,319,NULL,NULL,SentenceAudio/18f.wav,NULL,2.29067,NULL,NULL,NULL
888,02,320,NULL,NULL,,NULL,NULL,NULL,NULL,NULL
889,02,321,413,65,"<p>Was this sentence acceptable or unacceptab",Sentence,NULL,NULL,Filler-Ungram,NULL
890,02,322,NULL,NULL,SentenceAudio/6a.wav,NULL,1.4,NULL,NULL,NULL
891,02,323,NULL,NULL,,NULL,NULL,NULL,NULL,NULL
892,02,324,503,65,"<p>Was this sentence acceptable or unacceptab",Sentence,NULL,NULL,Grammatical,NULL
893,02,325,NULL,NULL,SentenceAudio/17c.wav,NULL,2.70933,NULL,NULL,NULL
894,02,326,NULL,NULL,,NULL,NULL,NULL,NULL,NULL
895,02,327,341,85,"<p>Was this sentence acceptable or unacceptab",Sentence,NULL,NULL,Ungrammatical,NULL
896,02,328,NULL,NULL,SentenceAudio/21d-3.wav,NULL,1.90933,NULL,NULL,NULL
897,02,329,NULL,NULL,,NULL,NULL,NULL,NULL,NULL
898,02,330,1625,85,"<p>Was this sentence acceptable or unacceptab",Sentence,NULL,NULL,Filler-Gram,NULL
899,02,331,NULL,NULL,SentenceAudio/29a.wav,NULL,1.74133,NULL,NULL,NULL
900,02,332,NULL,NULL,,NULL,NULL,NULL,NULL,NULL
901,02,333,473,65,"<p>Was this sentence acceptable or unacceptab",Sentence,NULL,NULL,Grammatical,NULL
902,02,334,NULL,NULL,SentenceAudio/2d.wav,NULL,2.08,NULL,NULL,NULL
903,02,335,NULL,NULL,,NULL,NULL,NULL,NULL,NULL
904,02,336,574,85,"<p>Was this sentence acceptable or unacceptab",Sentence,NULL,NULL,Filler-Gram,NULL
905,02,337,NULL,NULL,SentenceAudio/19f.wav,NULL,2.25067,NULL,NULL,NULL
906,02,338,NULL,NULL,,NULL,NULL,NULL,NULL,NULL
907,02,339,1191,65,"<p>Was this sentence acceptable or unacceptab",Sentence,NULL,NULL,Filler-Ungram,NULL
908,02,340,NULL,NULL,SentenceAudio/16f.wav,NULL,2.18933,NULL,NULL,NULL
909,02,341,NULL,NULL,,NULL,NULL,NULL,NULL,NULL
910,02,342,756,65,"<p>Was this sentence acceptable or unacceptab",Sentence,NULL,NULL,Filler-Ungram,NULL
911,02,343,NULL,NULL,SentenceAudio/21a.wav,NULL,1.89867,NULL,NULL,NULL
912,02,344,NULL,NULL,,NULL,NULL,NULL,NULL,NULL
913,02,345,539,65,"<p>Was this sentence acceptable or unacceptab",Sentence,NULL,NULL,Grammatical,NULL
914,02,346,NULL,NULL,SentenceAudio/30d.wav,NULL,2.05067,NULL,NULL,NULL
915,02,347,NULL,NULL,,NULL,NULL,NULL,NULL,NULL
916,02,348,2350,85,"<p>Was this sentence acceptable or unacceptab",Sentence,NULL,NULL,Filler-Gram,NULL
917,02,349,NULL,NULL,SentenceAudio/23c.wav,NULL,2.09067,NULL,NULL,NULL
918,02,350,NULL,NULL,,NULL,NULL,NULL,NULL,NULL
919,02,351,3004,85,"<p>Was this sentence acceptable or unacceptab",Sentence,NULL,NULL,Ungrammatical,NULL
920,02,352,NULL,NULL,SentenceAudio/20f.wav,NULL,2.73067,NULL,NULL,NULL
921,02,353,NULL,NULL,,NULL,NULL,NULL,NULL,NULL
922,02,354,580,65,"<p>Was this sentence acceptable or unacceptab",Sentence,NULL,NULL,Filler-Ungram,NULL
923,02,355,9968,32,"<p>That is the end of the third set of sound ",NULL,NULL,NULL,NULL,NULL
924,02,356,NULL,NULL,MusicAudio/012aniC4.wav,NULL,3.49867,NULL,NULL,NULL
925,02,357,NULL,NULL,,NULL,NULL,NULL,NULL,NULL
926,02,358,920,85,"<p>Was this musical phrase acceptable or unac",Music,NULL,NULL,Distant-Key,NULL
927,02,359,NULL,NULL,MusicAudio/029aniC1.wav,NULL,2.50133,NULL,NULL,NULL
928,02,360,NULL,NULL,,NULL,NULL,NULL,NULL,NULL
929,02,361,1137,65,"<p>Was this musical phrase acceptable or unac",Music,NULL,NULL,In-Key,NULL
930,02,362,NULL,NULL,MusicAudio/018aniC4.wav,NULL,3,NULL,NULL,NULL
931,02,363,NULL,NULL,,NULL,NULL,NULL,NULL,NULL
932,02,364,388,85,"<p>Was this musical phrase acceptable or unac",Music,NULL,NULL,Distant-Key,NULL
933,02,365,NULL,NULL,MusicAudio/08aniC1.wav,NULL,3,NULL,NULL,NULL
934,02,366,NULL,NULL,,NULL,NULL,NULL,NULL,NULL
935,02,367,604,65,"<p>Was this musical phrase acceptable or unac",Music,NULL,NULL,In-Key,NULL
936,02,368,NULL,NULL,MusicAudio/025aniC4.wav,NULL,3.25067,NULL,NULL,NULL
937,02,369,NULL,NULL,,NULL,NULL,NULL,NULL,NULL
938,02,370,481,85,"<p>Was this musical phrase acceptable or unac",Music,NULL,NULL,Distant-Key,NULL
939,02,371,NULL,NULL,MusicAudio/07aniC1.wav,NULL,6,NULL,NULL,NULL
940,02,372,NULL,NULL,,NULL,NULL,NULL,NULL,NULL
941,02,373,220,65,"<p>Was this musical phrase acceptable or unac",Music,NULL,NULL,In-Key,NULL
942,02,374,NULL,NULL,MusicAudio/031aniC4.wav,NULL,1.50133,NULL,NULL,NULL
943,02,375,NULL,NULL,,NULL,NULL,NULL,NULL,NULL
944,02,376,304,85,"<p>Was this musical phrase acceptable or unac",Music,NULL,NULL,Distant-Key,NULL
945,02,377,NULL,NULL,MusicAudio/019aniC4.wav,NULL,3.512,NULL,NULL,NULL
946,02,378,NULL,NULL,,NULL,NULL,NULL,NULL,NULL
947,02,379,454,65,"<p>Was this musical phrase acceptable or unac",Music,NULL,NULL,Distant-Key,NULL
948,02,380,NULL,NULL,MusicAudio/015aniC1.wav,NULL,2,NULL,NULL,NULL
949,02,381,NULL,NULL,,NULL,NULL,NULL,NULL,NULL
950,02,382,261,65,"<p>Was this musical phrase acceptable or unac",Music,NULL,NULL,In-Key,NULL
951,02,383,NULL,NULL,MusicAudio/01aniC4.wav,NULL,4,NULL,NULL,NULL
952,02,384,NULL,NULL,,NULL,NULL,NULL,NULL,NULL
953,02,385,331,65,"<p>Was this musical phrase acceptable or unac",Music,NULL,NULL,Distant-Key,NULL
954,02,386,NULL,NULL,MusicAudio/013aniC4.wav,NULL,3,NULL,NULL,NULL
955,02,387,NULL,NULL,,NULL,NULL,NULL,NULL,NULL
956,02,388,309,85,"<p>Was this musical phrase acceptable or unac",Music,NULL,NULL,Distant-Key,NULL
957,02,389,NULL,NULL,MusicAudio/028aniC1.wav,NULL,3.50133,NULL,NULL,NULL
958,02,390,NULL,NULL,,NULL,NULL,NULL,NULL,NULL
959,02,391,521,85,"<p>Was this musical phrase acceptable or unac",Music,NULL,NULL,In-Key,NULL
960,02,392,NULL,NULL,MusicAudio/032aniC1.wav,NULL,2.50133,NULL,NULL,NULL
961,02,393,NULL,NULL,,NULL,NULL,NULL,NULL,NULL
962,02,394,1360,65,"<p>Was this musical phrase acceptable or unac",Music,NULL,NULL,In-Key,NULL
963,02,395,NULL,NULL,MusicAudio/014aniC1.wav,NULL,2,NULL,NULL,NULL
964,02,396,NULL,NULL,,NULL,NULL,NULL,NULL,NULL
965,02,397,264,65,"<p>Was this musical phrase acceptable or unac",Music,NULL,NULL,In-Key,NULL
966,02,398,NULL,NULL,MusicAudio/011aniC1.wav,NULL,4.512,NULL,NULL,NULL
967,02,399,NULL,NULL,,NULL,NULL,NULL,NULL,NULL
968,02,400,344,65,"<p>Was this musical phrase acceptable or unac",Music,NULL,NULL,In-Key,NULL
969,02,401,NULL,NULL,MusicAudio/030aniC4.wav,NULL,3,NULL,NULL,NULL
970,02,402,NULL,NULL,,NULL,NULL,NULL,NULL,NULL
971,02,403,252,85,"<p>Was this musical phrase acceptable or unac",Music,NULL,NULL,Distant-Key,NULL
972,02,404,NULL,NULL,MusicAudio/014aniC4.wav,NULL,2.01067,NULL,NULL,NULL
973,02,405,NULL,NULL,,NULL,NULL,NULL,NULL,NULL
974,02,406,1370,85,"<p>Was this musical phrase acceptable or unac",Music,NULL,NULL,Distant-Key,NULL
975,02,407,NULL,NULL,MusicAudio/020aniC1.wav,NULL,1.50133,NULL,NULL,NULL
976,02,408,NULL,NULL,,NULL,NULL,NULL,NULL,NULL
977,02,409,632,65,"<p>Was this musical phrase acceptable or unac",Music,NULL,NULL,In-Key,NULL
978,02,410,NULL,NULL,MusicAudio/04aniC4.wav,NULL,5.01067,NULL,NULL,NULL
979,02,411,NULL,NULL,,NULL,NULL,NULL,NULL,NULL
980,02,412,1606,65,"<p>Was this musical phrase acceptable or unac",Music,NULL,NULL,Distant-Key,NULL
981,02,413,NULL,NULL,MusicAudio/026aniC4.wav,NULL,2,NULL,NULL,NULL
982,02,414,NULL,NULL,,NULL,NULL,NULL,NULL,NULL
983,02,415,586,85,"<p>Was this musical phrase acceptable or unac",Music,NULL,NULL,Distant-Key,NULL
984,02,416,NULL,NULL,MusicAudio/06aniC4.wav,NULL,2,NULL,NULL,NULL
985,02,417,NULL,NULL,,NULL,NULL,NULL,NULL,NULL
986,02,418,468,65,"<p>Was this musical phrase acceptable or unac",Music,NULL,NULL,Distant-Key,NULL
987,02,419,NULL,NULL,MusicAudio/09aniC4.wav,NULL,3.49867,NULL,NULL,NULL
988,02,420,NULL,NULL,,NULL,NULL,NULL,NULL,NULL
989,02,421,669,65,"<p>Was this musical phrase acceptable or unac",Music,NULL,NULL,Distant-Key,NULL
990,02,422,NULL,NULL,MusicAudio/023aniC1.wav,NULL,4,NULL,NULL,NULL
991,02,423,NULL,NULL,,NULL,NULL,NULL,NULL,NULL
992,02,424,694,65,"<p>Was this musical phrase acceptable or unac",Music,NULL,NULL,In-Key,NULL
993,02,425,NULL,NULL,MusicAudio/024aniC1.wav,NULL,3.25067,NULL,NULL,NULL
994,02,426,NULL,NULL,,NULL,NULL,NULL,NULL,NULL
995,02,427,856,65,"<p>Was this musical phrase acceptable or unac",Music,NULL,NULL,In-Key,NULL
996,02,428,NULL,NULL,MusicAudio/026aniC1.wav,NULL,2,NULL,NULL,NULL
997,02,429,NULL,NULL,,NULL,NULL,NULL,NULL,NULL
998,02,430,1064,65,"<p>Was this musical phrase acceptable or unac",Music,NULL,NULL,In-Key,NULL
999,02,431,NULL,NULL,MusicAudio/010aniC4.wav,NULL,1.49867,NULL,NULL,NULL
1000,02,432,NULL,NULL,,NULL,NULL,NULL,NULL,NULL
1001,02,433,2744,65,"<p>Was this musical phrase acceptable or unac",Music,NULL,NULL,Distant-Key,NULL
1002,02,434,NULL,NULL,MusicAudio/017aniC1.wav,NULL,2.50133,NULL,NULL,NULL
1003,02,435,NULL,NULL,,NULL,NULL,NULL,NULL,NULL
1004,02,436,405,65,"<p>Was this musical phrase acceptable or unac",Music,NULL,NULL,In-Key,NULL
1005,02,437,NULL,NULL,MusicAudio/019aniC1.wav,NULL,3.50133,NULL,NULL,NULL
1006,02,438,NULL,NULL,,NULL,NULL,NULL,NULL,NULL
1007,02,439,613,65,"<p>Was this musical phrase acceptable or unac",Music,NULL,NULL,In-Key,NULL
1008,02,440,NULL,NULL,MusicAudio/035aniC4.wav,NULL,3.512,NULL,NULL,NULL
1009,02,441,NULL,NULL,,NULL,NULL,NULL,NULL,NULL
1010,02,442,537,85,"<p>Was this musical phrase acceptable or unac",Music,NULL,NULL,Distant-Key,NULL
1011,02,443,NULL,NULL,MusicAudio/036aniC4.wav,NULL,4.01067,NULL,NULL,NULL
1012,02,444,NULL,NULL,,NULL,NULL,NULL,NULL,NULL
1013,02,445,337,85,"<p>Was this musical phrase acceptable or unac",Music,NULL,NULL,Distant-Key,NULL
1014,02,446,NULL,NULL,MusicAudio/09aniC1.wav,NULL,3.512,NULL,NULL,NULL
1015,02,447,NULL,NULL,,NULL,NULL,NULL,NULL,NULL
1016,02,448,1272,65,"<p>Was this musical phrase acceptable or unac",Music,NULL,NULL,In-Key,NULL
1017,02,449,NULL,NULL,MusicAudio/034aniC4.wav,NULL,4,NULL,NULL,NULL
1018,02,450,NULL,NULL,,NULL,NULL,NULL,NULL,NULL
1019,02,451,479,85,"<p>Was this musical phrase acceptable or unac",Music,NULL,NULL,Distant-Key,NULL
1020,02,452,NULL,NULL,MusicAudio/05aniC1.wav,NULL,5,NULL,NULL,NULL
1021,02,453,NULL,NULL,,NULL,NULL,NULL,NULL,NULL
1022,02,454,392,65,"<p>Was this musical phrase acceptable or unac",Music,NULL,NULL,In-Key,NULL
1023,02,455,NULL,NULL,MusicAudio/035aniC1.wav,NULL,3.512,NULL,NULL,NULL
1024,02,456,NULL,NULL,,NULL,NULL,NULL,NULL,NULL
1025,02,457,412,65,"<p>Was this musical phrase acceptable or unac",Music,NULL,NULL,In-Key,NULL
1026,02,458,NULL,NULL,MusicAudio/03aniC4.wav,NULL,3,NULL,NULL,NULL
1027,02,459,NULL,NULL,,NULL,NULL,NULL,NULL,NULL
1028,02,460,584,85,"<p>Was this musical phrase acceptable or unac",Music,NULL,NULL,Distant-Key,NULL
1029,02,461,NULL,NULL,MusicAudio/06aniC1.wav,NULL,2,NULL,NULL,NULL
1030,02,462,NULL,NULL,,NULL,NULL,NULL,NULL,NULL
1031,02,463,340,65,"<p>Was this musical phrase acceptable or unac",Music,NULL,NULL,In-Key,NULL
1032,02,464,9038,32,"<p>That is the end of the fourth set of sound",NULL,NULL,NULL,NULL,NULL
1033,02,465,NULL,NULL,SentenceAudio/2c.wav,NULL,2.66133,NULL,NULL,NULL
1034,02,466,NULL,NULL,,NULL,NULL,NULL,NULL,NULL
1035,02,467,764,85,"<p>Was this sentence acceptable or unacceptab",Sentence,NULL,NULL,Ungrammatical,NULL
1036,02,468,NULL,NULL,SentenceAudio/28d.wav,NULL,2.6,NULL,NULL,NULL
1037,02,469,NULL,NULL,,NULL,NULL,NULL,NULL,NULL
1038,02,470,1852,85,"<p>Was this sentence acceptable or unacceptab",Sentence,NULL,NULL,Filler-Gram,NULL
1039,02,471,NULL,NULL,SentenceAudio/1c.wav,NULL,1.832,NULL,NULL,NULL
1040,02,472,NULL,NULL,,NULL,NULL,NULL,NULL,NULL
1041,02,473,571,85,"<p>Was this sentence acceptable or unacceptab",Sentence,NULL,NULL,Ungrammatical,NULL
1042,02,474,NULL,NULL,SentenceAudio/25c.wav,NULL,2.17867,NULL,NULL,NULL
1043,02,475,NULL,NULL,,NULL,NULL,NULL,NULL,NULL
1044,02,476,553,85,"<p>Was this sentence acceptable or unacceptab",Sentence,NULL,NULL,Ungrammatical,NULL
1045,02,477,NULL,NULL,SentenceAudio/4d.wav,NULL,1.632,NULL,NULL,NULL
1046,02,478,NULL,NULL,,NULL,NULL,NULL,NULL,NULL
1047,02,479,2264,65,"<p>Was this sentence acceptable or unacceptab",Sentence,NULL,NULL,Filler-Gram,NULL
1048,02,480,NULL,NULL,SentenceAudio/4a.wav,NULL,1.66133,NULL,NULL,NULL
1049,02,481,NULL,NULL,,NULL,NULL,NULL,NULL,NULL
1050,02,482,727,65,"<p>Was this sentence acceptable or unacceptab",Sentence,NULL,NULL,Grammatical,NULL
1051,02,483,NULL,NULL,SentenceAudio/24c.wav,NULL,2.68,NULL,NULL,NULL
1052,02,484,NULL,NULL,,NULL,NULL,NULL,NULL,NULL
1053,02,485,424,85,"<p>Was this sentence acceptable or unacceptab",Sentence,NULL,NULL,Ungrammatical,NULL
1054,02,486,NULL,NULL,SentenceAudio/22d.wav,NULL,1.85067,NULL,NULL,NULL
1055,02,487,NULL,NULL,,NULL,NULL,NULL,NULL,NULL
1056,02,488,750,85,"<p>Was this sentence acceptable or unacceptab",Sentence,NULL,NULL,Filler-Gram,NULL
1057,02,489,NULL,NULL,SentenceAudio/27a.wav,NULL,1.49867,NULL,NULL,NULL
1058,02,490,NULL,NULL,,NULL,NULL,NULL,NULL,NULL
1059,02,491,508,65,"<p>Was this sentence acceptable or unacceptab",Sentence,NULL,NULL,Grammatical,NULL
1060,02,492,NULL,NULL,SentenceAudio/30a.wav,NULL,1.85867,NULL,NULL,NULL
1061,02,493,NULL,NULL,,NULL,NULL,NULL,NULL,NULL
1062,02,494,635,65,"<p>Was this sentence acceptable or unacceptab",Sentence,NULL,NULL,Grammatical,NULL
1063,02,495,NULL,NULL,SentenceAudio/14a.wav,NULL,1.78133,NULL,NULL,NULL
1064,02,496,NULL,NULL,,NULL,NULL,NULL,NULL,NULL
1065,02,497,4501,65,"<p>Was this sentence acceptable or unacceptab",Sentence,NULL,NULL,Grammatical,NULL
1066,02,498,NULL,NULL,SentenceAudio/16a.wav,NULL,1.57067,NULL,NULL,NULL
1067,02,499,NULL,NULL,,NULL,NULL,NULL,NULL,NULL
1068,02,500,1439,65,"<p>Was this sentence acceptable or unacceptab",Sentence,NULL,NULL,Grammatical,NULL
1069,02,501,NULL,NULL,SentenceAudio/1d.wav,NULL,2.09067,NULL,NULL,NULL
1070,02,502,NULL,NULL,,NULL,NULL,NULL,NULL,NULL
1071,02,503,1453,85,"<p>Was this sentence acceptable or unacceptab",Sentence,NULL,NULL,Filler-Gram,NULL
1072,02,504,NULL,NULL,SentenceAudio/3d.wav,NULL,1.6,NULL,NULL,NULL
1073,02,505,NULL,NULL,,NULL,NULL,NULL,NULL,NULL
1074,02,506,1191,85,"<p>Was this sentence acceptable or unacceptab",Sentence,NULL,NULL,Filler-Gram,NULL
1075,02,507,NULL,NULL,SentenceAudio/24a.wav,NULL,1.82133,NULL,NULL,NULL
1076,02,508,NULL,NULL,,NULL,NULL,NULL,NULL,NULL
1077,02,509,389,65,"<p>Was this sentence acceptable or unacceptab",Sentence,NULL,NULL,Grammatical,NULL
1078,02,510,NULL,NULL,SentenceAudio/22c.wav,NULL,2.18133,NULL,NULL,NULL
1079,02,511,NULL,NULL,,NULL,NULL,NULL,NULL,NULL
1080,02,512,457,85,"<p>Was this sentence acceptable or unacceptab",Sentence,NULL,NULL,Ungrammatical,NULL
1081,02,513,NULL,NULL,SentenceAudio/27c.wav,NULL,2.08,NULL,NULL,NULL
1082,02,514,NULL,NULL,,NULL,NULL,NULL,NULL,NULL
1083,02,515,331,85,"<p>Was this sentence acceptable or unacceptab",Sentence,NULL,NULL,Ungrammatical,NULL
1084,02,516,NULL,NULL,SentenceAudio/13c.wav,NULL,1.872,NULL,NULL,NULL
1085,02,517,NULL,NULL,,NULL,NULL,NULL,NULL,NULL
1086,02,518,279,85,"<p>Was this sentence acceptable or unacceptab",Sentence,NULL,NULL,Ungrammatical,NULL
1087,02,519,NULL,NULL,SentenceAudio/9c.wav,NULL,1.86933,NULL,NULL,NULL
1088,02,520,NULL,NULL,,NULL,NULL,NULL,NULL,NULL
1089,02,521,330,85,"<p>Was this sentence acceptable or unacceptab",Sentence,NULL,NULL,Ungrammatical,NULL
1090,02,522,NULL,NULL,SentenceAudio/10c.wav,NULL,2.12,NULL,NULL,NULL
1091,02,523,NULL,NULL,,NULL,NULL,NULL,NULL,NULL
1092,02,524,346,85,"<p>Was this sentence acceptable or unacceptab",Sentence,NULL,NULL,Ungrammatical,NULL
1093,02,525,NULL,NULL,SentenceAudio/25f.wav,NULL,2.4,NULL,NULL,NULL
1094,02,526,NULL,NULL,,NULL,NULL,NULL,NULL,NULL
1095,02,527,2212,65,"<p>Was this sentence acceptable or unacceptab",Sentence,NULL,NULL,Filler-Ungram,NULL
1096,02,528,NULL,NULL,SentenceAudio/28c.wav,NULL,2.52,NULL,NULL,NULL
1097,02,529,NULL,NULL,,NULL,NULL,NULL,NULL,NULL
1098,02,530,283,85,"<p>Was this sentence acceptable or unacceptab",Sentence,NULL,NULL,Ungrammatical,NULL
1099,02,531,NULL,NULL,SentenceAudio/14f.wav,NULL,2.65067,NULL,NULL,NULL
1100,02,532,NULL,NULL,,NULL,NULL,NULL,NULL,NULL
1101,02,533,489,65,"<p>Was this sentence acceptable or unacceptab",Sentence,NULL,NULL,Filler-Ungram,NULL
1102,02,534,NULL,NULL,SentenceAudio/13a.wav,NULL,1.50933,NULL,NULL,NULL
1103,02,535,NULL,NULL,,NULL,NULL,NULL,NULL,NULL
1104,02,536,374,65,"<p>Was this sentence acceptable or unacceptab",Sentence,NULL,NULL,Grammatical,NULL
1105,02,537,NULL,NULL,SentenceAudio/4c.wav,NULL,2.22133,NULL,NULL,NULL
1106,02,538,NULL,NULL,,NULL,NULL,NULL,NULL,NULL
1107,02,539,1318,85,"<p>Was this sentence acceptable or unacceptab",Sentence,NULL,NULL,Ungrammatical,NULL
1108,02,540,NULL,NULL,SentenceAudio/19a.wav,NULL,1.61067,NULL,NULL,NULL
1109,02,541,NULL,NULL,,NULL,NULL,NULL,NULL,NULL
1110,02,542,385,65,"<p>Was this sentence acceptable or unacceptab",Sentence,NULL,NULL,Grammatical,NULL
1111,02,543,NULL,NULL,SentenceAudio/22a.wav,NULL,1.66933,NULL,NULL,NULL
1112,02,544,NULL,NULL,,NULL,NULL,NULL,NULL,NULL
1113,02,545,736,65,"<p>Was this sentence acceptable or unacceptab",Sentence,NULL,NULL,Grammatical,NULL
1114,02,546,NULL,NULL,SentenceAudio/20c.wav,NULL,2.37067,NULL,NULL,NULL
1115,02,547,NULL,NULL,,NULL,NULL,NULL,NULL,NULL
1116,02,548,386,85,"<p>Was this sentence acceptable or unacceptab",Sentence,NULL,NULL,Ungrammatical,NULL
1117,02,549,NULL,NULL,SentenceAudio/6c.wav,NULL,2.05867,NULL,NULL,NULL
1118,02,550,NULL,NULL,,NULL,NULL,NULL,NULL,NULL
1119,02,551,387,85,"<p>Was this sentence acceptable or unacceptab",Sentence,NULL,NULL,Ungrammatical,NULL
1120,02,552,NULL,NULL,SentenceAudio/16c.wav,NULL,2.10933,NULL,NULL,NULL
1121,02,553,NULL,NULL,,NULL,NULL,NULL,NULL,NULL
1122,02,554,524,85,"<p>Was this sentence acceptable or unacceptab",Sentence,NULL,NULL,Ungrammatical,NULL
1123,02,555,NULL,NULL,SentenceAudio/3a.wav,NULL,1.752,NULL,NULL,NULL
1124,02,556,NULL,NULL,,NULL,NULL,NULL,NULL,NULL
1125,02,557,312,65,"<p>Was this sentence acceptable or unacceptab",Sentence,NULL,NULL,Grammatical,NULL
1126,02,558,NULL,NULL,SentenceAudio/13f.wav,NULL,2.33067,NULL,NULL,NULL
1127,02,559,NULL,NULL,,NULL,NULL,NULL,NULL,NULL
1128,02,560,3097,85,"<p>Was this sentence acceptable or unacceptab",Sentence,NULL,NULL,Filler-Ungram,NULL
1129,02,561,NULL,NULL,SentenceAudio/17a.wav,NULL,1.96,NULL,NULL,NULL
1130,02,562,NULL,NULL,,NULL,NULL,NULL,NULL,NULL
1131,02,563,623,65,"<p>Was this sentence acceptable or unacceptab",Sentence,NULL,NULL,Grammatical,NULL
1132,02,564,NULL,NULL,SentenceAudio/8a.wav,NULL,1.37067,NULL,NULL,NULL
1133,02,565,NULL,NULL,,NULL,NULL,NULL,NULL,NULL
1134,02,566,1042,65,"<p>Was this sentence acceptable or unacceptab",Sentence,NULL,NULL,Grammatical,NULL
1135,03,0,3472,NULL,NULL,NULL,NULL,NULL,NULL,NULL
1136,03,1,3389060,32,"<p>In this experiment, you will be presented ",NULL,NULL,NULL,NULL,NULL
1137,03,2,10487,65,"<p>Whenever you hear sentences that are sensi",NULL,NULL,NULL,NULL,NULL
1138,03,3,4700,85,"<p>Whenever you hear sentences that are bizar",NULL,NULL,NULL,NULL,NULL
1139,03,4,6095,65,"<p>Whenever you hear a musical phrase that so",NULL,NULL,NULL,NULL,NULL
1140,03,5,5903,85,"<p>Whenever you hear a musical phrase that so",NULL,NULL,NULL,NULL,NULL
1141,03,6,4641,32,"<p>Now you will have a chance to practice whi",NULL,NULL,NULL,NULL,NULL
1142,03,7,15248,32,"<p>First you will get a chance to practice wi",NULL,NULL,NULL,NULL,NULL
1143,03,8,NULL,NULL,PracticeSentencesAudio/Sample3c.wav,NULL,0,NULL,NULL,NULL
1144,03,9,NULL,NULL,,NULL,NULL,NULL,NULL,NULL
1145,03,10,1053,65,"<p>Was this sentence acceptable or unacceptab",Sentence,NULL,NULL,Ungrammatical-PRACTICE,NULL
1146,03,11,NULL,NULL,PracticeSentencesAudio/Sample1a.wav,NULL,0,NULL,NULL,NULL
1147,03,12,NULL,NULL,,NULL,NULL,NULL,NULL,NULL
1148,03,13,4268,65,"<p>Was this sentence acceptable or unacceptab",Sentence,NULL,NULL,Grammatical-PRACTICE,NULL
1149,03,14,NULL,NULL,PracticeSentencesAudio/Sample2a.wav,NULL,0,NULL,NULL,NULL
1150,03,15,NULL,NULL,,NULL,NULL,NULL,NULL,NULL
1151,03,16,2020,65,"<p>Was this sentence acceptable or unacceptab",Sentence,NULL,NULL,Grammatical-PRACTICE,NULL
1152,03,17,NULL,NULL,PracticeSentencesAudio/Sample2c.wav,NULL,0,NULL,NULL,NULL
1153,03,18,NULL,NULL,,NULL,NULL,NULL,NULL,NULL
1154,03,19,73,85,"<p>Was this sentence acceptable or unacceptab",Sentence,NULL,NULL,Ungrammatical-PRACTICE,NULL
1155,03,20,NULL,NULL,PracticeSentencesAudio/Sample3a.wav,NULL,0,NULL,NULL,NULL
1156,03,21,NULL,NULL,,NULL,NULL,NULL,NULL,NULL
1157,03,22,1989,65,"<p>Was this sentence acceptable or unacceptab",Sentence,NULL,NULL,Grammatical-PRACTICE,NULL
1158,03,23,NULL,NULL,PracticeSentencesAudio/Sample1c.wav,NULL,0,NULL,NULL,NULL
1159,03,24,NULL,NULL,,NULL,NULL,NULL,NULL,NULL
1160,03,25,600,85,"<p>Was this sentence acceptable or unacceptab",Sentence,NULL,NULL,Ungrammatical-PRACTICE,NULL
1161,03,26,8501,32,"<p>Now you will get a chance to practice with",NULL,NULL,NULL,NULL,NULL
1162,03,27,NULL,NULL,PracticeMusicAudio/SMusicC1C.wav,NULL,0,NULL,NULL,NULL
1163,03,28,NULL,NULL,,NULL,NULL,NULL,NULL,NULL
1164,03,29,1127,65,"<p>Was this musical phrase acceptable or unac",Music,NULL,NULL,In-Key-PRACTICE,NULL
1165,03,30,NULL,NULL,PracticeMusicAudio/SMusicC1D.wav,NULL,0,NULL,NULL,NULL
1166,03,31,NULL,NULL,,NULL,NULL,NULL,NULL,NULL
1167,03,32,1111,65,"<p>Was this musical phrase acceptable or unac",Music,NULL,NULL,In-Key-PRACTICE,NULL
1168,03,33,NULL,NULL,PracticeMusicAudio/SMusicC1F.wav,NULL,0.0106667,NULL,NULL,NULL
1169,03,34,NULL,NULL,,NULL,NULL,NULL,NULL,NULL
1170,03,35,617,65,"<p>Was this musical phrase acceptable or unac",Music,NULL,NULL,In-Key-PRACTICE,NULL
1171,03,36,NULL,NULL,PracticeMusicAudio/SMusicC4D.wav,NULL,0,NULL,NULL,NULL
1172,03,37,NULL,NULL,,NULL,NULL,NULL,NULL,NULL
1173,03,38,490,85,"<p>Was this musical phrase acceptable or unac",Music,NULL,NULL,Distant-Key-PRACTICE,NULL
1174,03,39,NULL,NULL,PracticeMusicAudio/SMusicC4C.wav,NULL,0,NULL,NULL,NULL
1175,03,40,NULL,NULL,,NULL,NULL,NULL,NULL,NULL
1176,03,41,1042,85,"<p>Was this musical phrase acceptable or unac",Music,NULL,NULL,Distant-Key-PRACTICE,NULL
1177,03,42,NULL,NULL,PracticeMusicAudio/SMusicC4F.wav,NULL,0,NULL,NULL,NULL
1178,03,43,NULL,NULL,,NULL,NULL,NULL,NULL,NULL
1179,03,44,550,85,"<p>Was this musical phrase acceptable or unac",Music,NULL,NULL,Distant-Key-PRACTICE,NULL
1180,03,45,35583,32,"<p>In the remaining part of the experiment, t",NULL,NULL,NULL,NULL,NULL
1181,03,46,7143,32,"<p>It is very important that you do not blink",NULL,NULL,NULL,NULL,NULL
1182,03,47,NULL,NULL,SentenceAudio/20a.wav,NULL,1.58933,NULL,NULL,NULL
1183,03,48,NULL,NULL,,NULL,NULL,NULL,NULL,NULL
1184,03,49,1674,65,"<p>Was this sentence acceptable or unacceptab",Sentence,NULL,NULL,Grammatical,NULL
1185,03,50,NULL,NULL,SentenceAudio/24d.wav,NULL,1.92,NULL,NULL,NULL
1186,03,51,NULL,NULL,,NULL,NULL,NULL,NULL,NULL
1187,03,52,853,85,"<p>Was this sentence acceptable or unacceptab",Sentence,NULL,NULL,Filler-Gram,NULL
1188,03,53,NULL,NULL,SentenceAudio/4d.wav,NULL,1.62933,NULL,NULL,NULL
1189,03,54,NULL,NULL,,NULL,NULL,NULL,NULL,NULL
1190,03,55,393,65,"<p>Was this sentence acceptable or unacceptab",Sentence,NULL,NULL,Filler-Gram,NULL
1191,03,56,NULL,NULL,SentenceAudio/27a.wav,NULL,1.50133,NULL,NULL,NULL
1192,03,57,NULL,NULL,,NULL,NULL,NULL,NULL,NULL
1193,03,58,1105,65,"<p>Was this sentence acceptable or unacceptab",Sentence,NULL,NULL,Grammatical,NULL
1194,03,59,NULL,NULL,SentenceAudio/30a.wav,NULL,1.86133,NULL,NULL,NULL
1195,03,60,NULL,NULL,,NULL,NULL,NULL,NULL,NULL
1196,03,61,972,65,"<p>Was this sentence acceptable or unacceptab",Sentence,NULL,NULL,Grammatical,NULL
1197,03,62,NULL,NULL,SentenceAudio/9a.wav,NULL,1.66133,NULL,NULL,NULL
1198,03,63,NULL,NULL,,NULL,NULL,NULL,NULL,NULL
1199,03,64,1697,85,"<p>Was this sentence acceptable or unacceptab",Sentence,NULL,NULL,Grammatical,NULL
1200,03,65,NULL,NULL,SentenceAudio/10d.wav,NULL,1.64,NULL,NULL,NULL
1201,03,66,NULL,NULL,,NULL,NULL,NULL,NULL,NULL
1202,03,67,876,65,"<p>Was this sentence acceptable or unacceptab",Sentence,NULL,NULL,Filler-Gram,NULL
1203,03,68,NULL,NULL,SentenceAudio/12f.wav,NULL,2.44,NULL,NULL,NULL
1204,03,69,NULL,NULL,,NULL,NULL,NULL,NULL,NULL
1205,03,70,704,65,"<p>Was this sentence acceptable or unacceptab",Sentence,NULL,NULL,Filler-Ungram,NULL
1206,03,71,NULL,NULL,SentenceAudio/30f.wav,NULL,2.512,NULL,NULL,NULL
1207,03,72,NULL,NULL,,NULL,NULL,NULL,NULL,NULL
1208,03,73,1153,65,"<p>Was this sentence acceptable or unacceptab",Sentence,NULL,NULL,Filler-Ungram,NULL
1209,03,74,NULL,NULL,SentenceAudio/22f.wav,NULL,1.46133,NULL,NULL,NULL
1210,03,75,NULL,NULL,,NULL,NULL,NULL,NULL,NULL
1211,03,76,1223,85,"<p>Was this sentence acceptable or unacceptab",Sentence,NULL,NULL,Filler-Ungram,NULL
1212,03,77,NULL,NULL,SentenceAudio/28f.wav,NULL,2.36,NULL,NULL,NULL
1213,03,78,NULL,NULL,,NULL,NULL,NULL,NULL,NULL
1214,03,79,721,65,"<p>Was this sentence acceptable or unacceptab",Sentence,NULL,NULL,Filler-Ungram,NULL
1215,03,80,NULL,NULL,SentenceAudio/16f.wav,NULL,2.18133,NULL,NULL,NULL
1216,03,81,NULL,NULL,,NULL,NULL,NULL,NULL,NULL
1217,03,82,1401,65,"<p>Was this sentence acceptable or unacceptab",Sentence,NULL,NULL,Filler-Ungram,NULL
1218,03,83,NULL,NULL,SentenceAudio/3d.wav,NULL,1.6,NULL,NULL,NULL
1219,03,84,NULL,NULL,,NULL,NULL,NULL,NULL,NULL
1220,03,85,843,85,"<p>Was this sentence acceptable or unacceptab",Sentence,NULL,NULL,Filler-Gram,NULL
1221,03,86,NULL,NULL,SentenceAudio/15c.wav,NULL,2.41067,NULL,NULL,NULL
1222,03,87,NULL,NULL,,NULL,NULL,NULL,NULL,NULL
1223,03,88,1516,65,"<p>Was this sentence acceptable or unacceptab",Sentence,NULL,NULL,Ungrammatical,NULL
1224,03,89,NULL,NULL,SentenceAudio/30c.wav,NULL,2.28,NULL,NULL,NULL
1225,03,90,NULL,NULL,,NULL,NULL,NULL,NULL,NULL
1226,03,91,1287,85,"<p>Was this sentence acceptable or unacceptab",Sentence,NULL,NULL,Ungrammatical,NULL
1227,03,92,NULL,NULL,SentenceAudio/5c.wav,NULL,2.52,NULL,NULL,NULL
1228,03,93,NULL,NULL,,NULL,NULL,NULL,NULL,NULL
1229,03,94,1413,85,"<p>Was this sentence acceptable or unacceptab",Sentence,NULL,NULL,Ungrammatical,NULL
1230,03,95,NULL,NULL,SentenceAudio/11a.wav,NULL,1.792,NULL,NULL,NULL
1231,03,96,NULL,NULL,,NULL,NULL,NULL,NULL,NULL
1232,03,97,1060,65,"<p>Was this sentence acceptable or unacceptab",Sentence,NULL,NULL,Grammatical,NULL
1233,03,98,NULL,NULL,SentenceAudio/23d.wav,NULL,1.68,NULL,NULL,NULL
1234,03,99,NULL,NULL,,NULL,NULL,NULL,NULL,NULL
1235,03,100,1086,65,"<p>Was this sentence acceptable or unacceptab",Sentence,NULL,NULL,Filler-Gram,NULL
1236,03,101,NULL,NULL,SentenceAudio/29d.wav,NULL,1.768,NULL,NULL,NULL
1237,03,102,NULL,NULL,,NULL,NULL,NULL,NULL,NULL
1238,03,103,1867,65,"<p>Was this sentence acceptable or unacceptab",Sentence,NULL,NULL,Filler-Gram,NULL
1239,03,104,NULL,NULL,SentenceAudio/11c.wav,NULL,2.6,NULL,NULL,NULL
1240,03,105,NULL,NULL,,NULL,NULL,NULL,NULL,NULL
1241,03,106,1302,85,"<p>Was this sentence acceptable or unacceptab",Sentence,NULL,NULL,Ungrammatical,NULL
1242,03,107,NULL,NULL,SentenceAudio/21a.wav,NULL,1.89067,NULL,NULL,NULL
1243,03,108,NULL,NULL,,NULL,NULL,NULL,NULL,NULL
1244,03,109,1735,65,"<p>Was this sentence acceptable or unacceptab",Sentence,NULL,NULL,Grammatical,NULL
1245,03,110,NULL,NULL,SentenceAudio/24c.wav,NULL,2.68,NULL,NULL,NULL
1246,03,111,NULL,NULL,,NULL,NULL,NULL,NULL,NULL
1247,03,112,951,85,"<p>Was this sentence acceptable or unacceptab",Sentence,NULL,NULL,Ungrammatical,NULL
1248,03,113,NULL,NULL,SentenceAudio/24a.wav,NULL,1.82133,NULL,NULL,NULL
1249,03,114,NULL,NULL,,NULL,NULL,NULL,NULL,NULL
1250,03,115,1485,65,"<p>Was this sentence acceptable or unacceptab",Sentence,NULL,NULL,Grammatical,NULL
1251,03,116,NULL,NULL,SentenceAudio/29a.wav,NULL,1.74133,NULL,NULL,NULL
1252,03,117,NULL,NULL,,NULL,NULL,NULL,NULL,NULL
1253,03,118,732,65,"<p>Was this sentence acceptable or unacceptab",Sentence,NULL,NULL,Grammatical,NULL
1254,03,119,NULL,NULL,SentenceAudio/21c-2.wav,NULL,2.26933,NULL,NULL,NULL
1255,03,120,NULL,NULL,,NULL,NULL,NULL,NULL,NULL
1256,03,121,1128,85,"<p>Was this sentence acceptable or unacceptab",Sentence,NULL,NULL,Ungrammatical,NULL
1257,03,122,NULL,NULL,SentenceAudio/26d.wav,NULL,1.58933,NULL,NULL,NULL
1258,03,123,NULL,NULL,,NULL,NULL,NULL,NULL,NULL
1259,03,124,1406,85,"<p>Was this sentence acceptable or unacceptab",Sentence,NULL,NULL,Filler-Gram,NULL
1260,03,125,NULL,NULL,SentenceAudio/29c.wav,NULL,2.18133,NULL,NULL,NULL
1261,03,126,NULL,NULL,,NULL,NULL,NULL,NULL,NULL
1262,03,127,1259,85,"<p>Was this sentence acceptable or unacceptab",Sentence,NULL,NULL,Ungrammatical,NULL
1263,03,128,NULL,NULL,SentenceAudio/2c.wav,NULL,2.65067,NULL,NULL,NULL
1264,03,129,NULL,NULL,,NULL,NULL,NULL,NULL,NULL
1265,03,130,1555,65,"<p>Was this sentence acceptable or unacceptab",Sentence,NULL,NULL,Ungrammatical,NULL
1266,03,131,NULL,NULL,SentenceAudio/9d.wav,NULL,1.68,NULL,NULL,NULL
1267,03,132,NULL,NULL,,NULL,NULL,NULL,NULL,NULL
1268,03,133,1828,65,"<p>Was this sentence acceptable or unacceptab",Sentence,NULL,NULL,Filler-Gram,NULL
1269,03,134,NULL,NULL,SentenceAudio/3c.wav,NULL,2.17067,NULL,NULL,NULL
1270,03,135,NULL,NULL,,NULL,NULL,NULL,NULL,NULL
1271,03,136,901,85,"<p>Was this sentence acceptable or unacceptab",Sentence,NULL,NULL,Ungrammatical,NULL
1272,03,137,NULL,NULL,SentenceAudio/3a.wav,NULL,1.74933,NULL,NULL,NULL
1273,03,138,NULL,NULL,,NULL,NULL,NULL,NULL,NULL
1274,03,139,702,65,"<p>Was this sentence acceptable or unacceptab",Sentence,NULL,NULL,Grammatical,NULL
1275,03,140,NULL,NULL,SentenceAudio/5d.wav,NULL,2.088,NULL,NULL,NULL
1276,03,141,NULL,NULL,,NULL,NULL,NULL,NULL,NULL
1277,03,142,785,85,"<p>Was this sentence acceptable or unacceptab",Sentence,NULL,NULL,Filler-Gram,NULL
1278,03,143,NULL,NULL,SentenceAudio/30d.wav,NULL,2.05067,NULL,NULL,NULL
1279,03,144,NULL,NULL,,NULL,NULL,NULL,NULL,NULL
1280,03,145,737,85,"<p>Was this sentence acceptable or unacceptab",Sentence,NULL,NULL,Filler-Gram,NULL
1281,03,146,17687,32,"<p>That is the end of the first set of sound ",NULL,NULL,NULL,NULL,NULL
1282,03,147,NULL,NULL,MusicAudio/08aniC1.wav,NULL,3,NULL,NULL,NULL
1283,03,148,NULL,NULL,,NULL,NULL,NULL,NULL,NULL
1284,03,149,513,65,"<p>Was this musical phrase acceptable or unac",Music,NULL,NULL,In-Key,NULL
1285,03,150,NULL,NULL,MusicAudio/02aniC4.wav,NULL,4,NULL,NULL,NULL
1286,03,151,NULL,NULL,,NULL,NULL,NULL,NULL,NULL
1287,03,152,1110,85,"<p>Was this musical phrase acceptable or unac",Music,NULL,NULL,Distant-Key,NULL
1288,03,153,NULL,NULL,MusicAudio/017aniC4.wav,NULL,2.49867,NULL,NULL,NULL
1289,03,154,NULL,NULL,,NULL,NULL,NULL,NULL,NULL
1290,03,155,659,65,"<p>Was this musical phrase acceptable or unac",Music,NULL,NULL,Distant-Key,NULL
1291,03,156,NULL,NULL,MusicAudio/020aniC4.wav,NULL,1.49867,NULL,NULL,NULL
1292,03,157,NULL,NULL,,NULL,NULL,NULL,NULL,NULL
1293,03,158,721,65,"<p>Was this musical phrase acceptable or unac",Music,NULL,NULL,Distant-Key,NULL
1294,03,159,NULL,NULL,MusicAudio/034aniC1.wav,NULL,4,NULL,NULL,NULL
1295,03,160,NULL,NULL,,NULL,NULL,NULL,NULL,NULL
1296,03,161,930,85,"<p>Was this musical phrase acceptable or unac",Music,NULL,NULL,In-Key,NULL
1297,03,162,NULL,NULL,MusicAudio/07aniC4.wav,NULL,6,NULL,NULL,NULL
1298,03,163,NULL,NULL,,NULL,NULL,NULL,NULL,NULL
1299,03,164,629,85,"<p>Was this musical phrase acceptable or unac",Music,NULL,NULL,Distant-Key,NULL
1300,03,165,NULL,NULL,MusicAudio/021aniC4.wav,NULL,2.01067,NULL,NULL,NULL
1301,03,166,NULL,NULL,,NULL,NULL,NULL,NULL,NULL
1302,03,167,1044,85,"<p>Was this musical phrase acceptable or unac",Music,NULL,NULL,Distant-Key,NULL
1303,03,168,NULL,NULL,MusicAudio/028aniC1.wav,NULL,3.50133,NULL,NULL,NULL
1304,03,169,NULL,NULL,,NULL,NULL,NULL,NULL,NULL
1305,03,170,1593,65,"<p>Was this musical phrase acceptable or unac",Music,NULL,NULL,In-Key,NULL
1306,03,171,NULL,NULL,MusicAudio/024aniC4.wav,NULL,3.25067,NULL,NULL,NULL
1307,03,172,NULL,NULL,,NULL,NULL,NULL,NULL,NULL
1308,03,173,755,65,"<p>Was this musical phrase acceptable or unac",Music,NULL,NULL,Distant-Key,NULL
1309,03,174,NULL,NULL,MusicAudio/01aniC1.wav,NULL,4,NULL,NULL,NULL
1310,03,175,NULL,NULL,,NULL,NULL,NULL,NULL,NULL
1311,03,176,1925,65,"<p>Was this musical phrase acceptable or unac",Music,NULL,NULL,In-Key,NULL
1312,03,177,NULL,NULL,MusicAudio/027aniC4.wav,NULL,5.01067,NULL,NULL,NULL
1313,03,178,NULL,NULL,,NULL,NULL,NULL,NULL,NULL
1314,03,179,669,85,"<p>Was this musical phrase acceptable or unac",Music,NULL,NULL,Distant-Key,NULL
1315,03,180,NULL,NULL,MusicAudio/018aniC4.wav,NULL,3,NULL,NULL,NULL
1316,03,181,NULL,NULL,,NULL,NULL,NULL,NULL,NULL
1317,03,182,1321,85,"<p>Was this musical phrase acceptable or unac",Music,NULL,NULL,Distant-Key,NULL
1318,03,183,NULL,NULL,MusicAudio/013aniC4.wav,NULL,3,NULL,NULL,NULL
1319,03,184,NULL,NULL,,NULL,NULL,NULL,NULL,NULL
1320,03,185,847,85,"<p>Was this musical phrase acceptable or unac",Music,NULL,NULL,Distant-Key,NULL
1321,03,186,NULL,NULL,MusicAudio/012aniC4.wav,NULL,3.49867,NULL,NULL,NULL
1322,03,187,NULL,NULL,,NULL,NULL,NULL,NULL,NULL
1323,03,188,564,85,"<p>Was this musical phrase acceptable or unac",Music,NULL,NULL,Distant-Key,NULL
1324,03,189,NULL,NULL,MusicAudio/031aniC1.wav,NULL,1.50133,NULL,NULL,NULL
1325,03,190,NULL,NULL,,NULL,NULL,NULL,NULL,NULL
1326,03,191,443,65,"<p>Was this musical phrase acceptable or unac",Music,NULL,NULL,In-Key,NULL
1327,03,192,NULL,NULL,MusicAudio/021aniC1.wav,NULL,2,NULL,NULL,NULL
1328,03,193,NULL,NULL,,NULL,NULL,NULL,NULL,NULL
1329,03,194,756,65,"<p>Was this musical phrase acceptable or unac",Music,NULL,NULL,In-Key,NULL
1330,03,195,NULL,NULL,MusicAudio/06aniC1.wav,NULL,2,NULL,NULL,NULL
1331,03,196,NULL,NULL,,NULL,NULL,NULL,NULL,NULL
1332,03,197,1473,65,"<p>Was this musical phrase acceptable or unac",Music,NULL,NULL,In-Key,NULL
1333,03,198,NULL,NULL,MusicAudio/06aniC4.wav,NULL,2,NULL,NULL,NULL
1334,03,199,NULL,NULL,,NULL,NULL,NULL,NULL,NULL
1335,03,200,1012,65,"<p>Was this musical phrase acceptable or unac",Music,NULL,NULL,Distant-Key,NULL
1336,03,201,NULL,NULL,MusicAudio/018aniC1.wav,NULL,3.01067,NULL,NULL,NULL
1337,03,202,NULL,NULL,,NULL,NULL,NULL,NULL,NULL
1338,03,203,1902,65,"<p>Was this musical phrase acceptable or unac",Music,NULL,NULL,In-Key,NULL
1339,03,204,NULL,NULL,MusicAudio/023aniC4.wav,NULL,4,NULL,NULL,NULL
1340,03,205,NULL,NULL,,NULL,NULL,NULL,NULL,NULL
1341,03,206,1825,65,"<p>Was this musical phrase acceptable or unac",Music,NULL,NULL,Distant-Key,NULL
1342,03,207,NULL,NULL,MusicAudio/022aniC1.wav,NULL,2,NULL,NULL,NULL
1343,03,208,NULL,NULL,,NULL,NULL,NULL,NULL,NULL
1344,03,209,564,65,"<p>Was this musical phrase acceptable or unac",Music,NULL,NULL,In-Key,NULL
1345,03,210,NULL,NULL,MusicAudio/025aniC1.wav,NULL,3.26133,NULL,NULL,NULL
1346,03,211,NULL,NULL,,NULL,NULL,NULL,NULL,NULL
1347,03,212,1350,65,"<p>Was this musical phrase acceptable or unac",Music,NULL,NULL,In-Key,NULL
1348,03,213,NULL,NULL,MusicAudio/028aniC4.wav,NULL,3.49867,NULL,NULL,NULL
1349,03,214,NULL,NULL,,NULL,NULL,NULL,NULL,NULL
1350,03,215,827,65,"<p>Was this musical phrase acceptable or unac",Music,NULL,NULL,Distant-Key,NULL
1351,03,216,NULL,NULL,MusicAudio/023aniC1.wav,NULL,4,NULL,NULL,NULL
1352,03,217,NULL,NULL,,NULL,NULL,NULL,NULL,NULL
1353,03,218,458,65,"<p>Was this musical phrase acceptable or unac",Music,NULL,NULL,In-Key,NULL
1354,03,219,NULL,NULL,MusicAudio/017aniC1.wav,NULL,2.50133,NULL,NULL,NULL
1355,03,220,NULL,NULL,,NULL,NULL,NULL,NULL,NULL
1356,03,221,328,65,"<p>Was this musical phrase acceptable or unac",Music,NULL,NULL,In-Key,NULL
1357,03,222,NULL,NULL,MusicAudio/026aniC1.wav,NULL,2,NULL,NULL,NULL
1358,03,223,NULL,NULL,,NULL,NULL,NULL,NULL,NULL
1359,03,224,361,65,"<p>Was this musical phrase acceptable or unac",Music,NULL,NULL,In-Key,NULL
1360,03,225,NULL,NULL,MusicAudio/024aniC1.wav,NULL,3.248,NULL,NULL,NULL
1361,03,226,NULL,NULL,,NULL,NULL,NULL,NULL,NULL
